relative_time,AccX,AccY,AccZ,BarometerSensor
0,-3.121608581542969,-2.5092320251464844,8.787626037597656,985.3410339355469
64,-2.9196784973144534,-2.6312283325195316,8.748407592773438,985.3410339355469
134,-2.707419891357422,-2.665207672119141,8.997339935302735,985.3410339355469
198,-2.877316589355469,-2.5331822204589844,8.984017639160157,985.3410339355469
264,-2.9150381469726563,-2.6191035461425782,8.982071685791016,985.3410339355469
334,-2.9198281860351565,-2.678380279541016,8.904981994628907,985.3413391113281
397,-2.9033624267578126,-2.5722509765625,8.976533203125001,985.3413391113281
464,-2.9295579528808595,-2.6575735473632816,9.018146667480469,985.3413391113281
535,-2.8599526977539065,-2.5364753723144533,8.793912963867188,985.3413391113281
598,-2.8373497009277346,-2.5222549438476562,8.938811645507814,985.3413391113281
664,-2.9353958129882813,-2.025887145996094,9.311686248779298,985.3413391113281
732,-2.9460237121582034,-2.3743624877929688,8.667126617431641,985.3413391113281
797,-2.6830206298828125,-3.455713806152344,9.248517608642578,985.3413391113281
864,-2.6159600830078125,-1.2496014404296876,7.886649627685547,985.3413391113281
937,-3.0460157775878907,-2.6665548706054687,9.766739959716798,985.3413391113281
998,-2.3917263793945316,-2.3770568847656253,8.917256469726563,985.3413391113281
1064,-1.9166143798828126,-2.954256591796875,7.428452453613281,985.3413391113281
1135,-1.7655784606933596,-3.934717712402344,7.0221972656250005,985.3413391113281
1198,-3.504811706542969,-4.502337341308594,6.357729034423828,985.3413391113281
1264,-8.334967346191407,-7.558831329345703,4.928501129150391,985.3438568115234
1336,-2.4542962646484376,-11.986174621582032,1.4618600463867188,985.3438568115234
1398,-0.5492079162597656,-10.018965454101563,0.858614501953125,985.3438568115234
1464,-7.1385054016113285,-10.821596374511719,-3.3403038024902347,985.3438568115234
1535,-6.866371307373047,-10.842552795410157,1.8345849609375,985.3438568115234
1598,0.9635462951660156,-2.489173736572266,3.7151243591308596,985.3438568115234
1664,0.12109817504882812,-6.4182032775878906,-4.938230895996094,985.3438568115234
1735,1.2017010498046876,-6.479575653076172,0.7661068725585938,985.3438568115234
1798,-3.8564305114746094,-13.28996337890625,0.3703298950195313,985.3438568115234
1864,-5.419929199218751,-6.897656250000001,4.147275695800781,985.3438568115234
1934,-4.983287200927735,-2.8229795837402345,3.966900787353516,985.3438568115234
1998,-4.413272552490235,-10.545570373535156,3.100951538085938,985.3438568115234
2064,-3.4992732238769535,-9.063652038574219,1.6389418029785157,985.3438568115234
2137,-5.36529281616211,-8.368497619628906,2.3511607360839846,985.3438568115234
2198,-6.479575653076172,-6.331383819580078,2.0172052001953125,985.3520202636719
2264,-8.448431396484375,-7.797435150146485,1.469045104980469,985.3520202636719
2337,-6.971752166748047,-6.472989349365235,0.07828720092773438,985.3520202636719
2398,-6.839427337646485,-7.136260070800781,-1.743274841308594,985.3520202636719
2464,-6.4129641723632815,-8.284222869873048,1.4615606689453127,985.3520202636719
2538,-5.598807220458984,-9.647138671875,-1.3897100830078126,985.3520202636719
2597,-6.980883178710938,-6.097869415283204,0.3100053405761719,985.3520202636719
2664,-7.67409164428711,-5.416785736083985,0.4317022705078125,985.3520202636719
2734,-7.870333557128907,-5.741759948730469,0.37392242431640627,985.3520202636719
2798,-8.702303466796875,-6.59348876953125,0.5319937133789063,985.3520202636719
2864,-7.306306457519532,-6.364914093017578,0.06271957397460938,985.3520202636719
2935,-6.79946044921875,-6.917115783691407,0.11121871948242187,985.3520202636719
2998,-7.529192962646484,-6.49289794921875,0.3261717224121094,985.3520202636719
3064,-7.538623352050782,-6.109096069335938,0.15073654174804688,985.3520202636719
3138,-7.371421051025391,-6.482270050048829,0.288599853515625,985.3533935546875
3198,-7.3567515563964845,-6.536307678222657,0.21510269165039064,985.3533935546875
3264,-7.182064819335938,-6.5925906372070315,0.20372634887695312,985.3533935546875
3335,-7.226222991943359,-6.5590603637695315,0.29728179931640625,985.3533935546875
3398,-7.270680541992188,-6.568041687011719,0.21195922851562501,985.3533935546875
3464,-7.3268138122558595,-6.469546508789063,0.159268798828125,985.3533935546875
3536,-7.381300506591797,-6.508615264892579,0.2233355712890625,985.3533935546875
3597,-7.4095916748046875,-6.385271759033204,0.33185989379882813,985.3533935546875
3664,-7.494914245605469,-6.22944580078125,0.3941304016113281,985.3533935546875
3737,-7.399412841796876,-6.2596829223632815,0.3538641357421875,985.3533935546875
3798,-7.4449182128906255,-6.400989074707032,0.37122802734375004,985.3533935546875
3864,-7.475754089355469,-6.109844512939453,0.42571472167968755,985.3533935546875
3937,-7.537276153564454,-5.788313140869141,0.47196853637695313,985.3533935546875
3998,-7.852969665527344,-5.999523925781251,0.5023553466796875,985.3533935546875
4064,-7.5610766601562505,-6.224805450439454,0.544866943359375,985.3569030761719
4133,-7.6474470520019535,-5.887556762695313,0.6497987365722656,985.3569030761719
4198,-7.563771057128907,-6.155050506591797,0.6012995910644532,985.3569030761719
4264,-7.640860748291016,-6.908433837890625,1.9323316955566407,985.3569030761719
4334,-7.117548980712891,-6.5943869018554695,2.5331822204589844,985.3569030761719
4398,-6.410419464111328,-7.2862481689453125,3.6527041625976566,985.3569030761719
4464,-6.199508056640625,-4.930746459960938,2.5294400024414063,985.3569030761719
4541,-6.379882965087891,-7.286697235107423,3.0482611083984374,985.3569030761719
4598,-4.73974365234375,-6.326743469238282,3.5549574279785157,985.3569030761719
4664,-6.005062408447266,-5.695655822753906,3.140918426513672,985.3569030761719
4733,-10.792556762695312,-4.645439758300782,6.481371917724609,985.3569030761719
4798,-6.597081298828125,-8.380772094726563,3.2695010375976565,985.3569030761719
4864,-6.973099365234376,-8.776998138427734,1.9690054321289063,985.3569030761719
4933,-5.656287689208985,-4.731361083984376,0.7253915405273438,985.3569030761719
4998,-7.483388214111328,-6.204597473144531,1.2898677062988282,985.3569030761719
5064,-9.9584912109375,-6.653064880371094,1.967358856201172,985.3634643554688
5134,-5.740562438964844,-4.555476837158204,0.6102809143066407,985.3634643554688
5198,-6.700965270996094,-5.043162689208985,1.8937120056152346,985.3634643554688
5264,-7.9203295898437505,-5.839656372070313,1.5253280639648439,985.3634643554688
5341,-7.5347314453125005,-5.6643708801269534,2.012864227294922,985.3634643554688
5398,-8.579708404541016,-6.831344146728516,1.3997392272949218,985.3634643554688
5464,-10.374925231933593,-7.400460662841797,7.790549468994141,985.3634643554688
5533,-7.489525451660157,-6.689888305664063,-0.44562332153320316,985.3634643554688
5598,-5.353018341064454,-6.259832611083985,-0.7024891662597657,985.3634643554688
5664,-7.600744171142579,-9.557325439453125,1.593586120605469,985.3634643554688
5733,-9.198820953369141,-5.883664855957032,1.568588104248047,985.3634643554688
5798,-6.273154907226563,-7.554640045166016,2.515668640136719,985.3634643554688
5864,-4.031117248535156,-5.815406799316406,4.497098236083985,985.3634643554688
5933,-0.8948391723632813,-4.9865803527832036,4.247866516113281,985.3634643554688
6000,-1.3561798095703126,-4.3330393981933595,5.594765625,985.3656005859375
6064,-1.8772462463378907,-6.408623199462891,8.561596069335938,985.3656005859375
6133,-11.291319580078126,-13.708043975830078,-0.124541015625,985.3656005859375
6198,-3.5920802307128907,-3.6051031494140626,1.4379098510742188,985.3656005859375
6264,-8.754245452880859,-7.320227508544923,3.4094599914550785,985.3656005859375
6332,-9.077423400878907,-5.931116180419922,2.305954742431641,985.3656005859375
6398,-6.120771789550782,-3.829486541748047,0.7256909179687501,985.3656005859375
6464,-5.9339602661132815,-3.297492828369141,0.7500901794433594,985.3656005859375
6532,-9.457333374023438,-4.9105384826660154,0.22722747802734375,985.3656005859375
6598,-6.941664733886719,-4.9916697692871095,0.9258247375488282,985.3656005859375
6664,-6.850953369140625,-6.033652954101563,1.2290940856933594,985.3656005859375
6733,-8.412655792236329,-6.352789306640625,2.059716796875,985.3656005859375
6798,-9.933343505859375,-7.386539611816406,1.9116746520996095,985.3656005859375
6864,-9.212891693115235,-6.9904632568359375,0.47795608520507815,985.3656005859375
6933,-6.741231536865235,-5.6761962890625,0.3406915283203125,985.3683471679688
6998,-6.3036914062500005,-5.720055084228516,-0.6057902526855469,985.3683471679688
7064,-7.600444793701172,-11.097772064208986,-2.912194061279297,985.3683471679688
7134,-6.012846221923828,-7.925718383789063,0.8235873413085938,985.3683471679688
7198,-6.821913757324219,-6.2560903930664065,0.6855743408203125,985.3683471679688
7264,-6.8548452758789065,-5.493875427246094,1.3455519104003908,985.3683471679688
7333,-7.002138977050782,-6.586004333496094,-1.8682649230957031,985.3683471679688
7398,-6.091432800292969,-6.239175567626954,0.3406915283203125,985.3683471679688
7464,-6.159092102050781,-7.778274993896485,-0.11570938110351563,985.3683471679688
7534,-6.305188293457031,-7.163503417968751,1.703757019042969,985.3683471679688
7597,-8.074808349609375,-6.622827758789063,2.704725494384766,985.3683471679688
7664,-8.127947845458985,-7.110812988281251,1.697919158935547,985.3683471679688
7734,-4.5848158264160155,-5.868097229003906,3.5606455993652344,985.3683471679688
7798,-4.076023864746094,-6.788682861328125,4.5180546569824225,985.3683471679688
7864,-2.2933808898925783,-5.8722885131835945,4.7910868835449225,985.3656005859375
7934,-1.2720547485351563,-5.5253100585937505,4.436773681640625,985.3656005859375
7998,-3.7110827636718753,-6.493496704101563,10.72340057373047,985.3656005859375
8064,-8.631201324462891,-9.335636444091797,-0.7427554321289063,985.3656005859375
8133,-5.243895263671876,-7.299720153808594,2.319127349853516,985.3656005859375
8198,-7.8570112609863285,-7.155569915771485,3.5214271545410156,985.3656005859375
8264,-6.564598846435548,-5.94683349609375,2.49800537109375,985.3656005859375
8333,-7.61945526123047,-5.916746063232422,2.9651838684082032,985.3656005859375
8398,-4.405788116455079,-2.538870391845703,0.5671705627441407,985.3656005859375
8464,-5.718707885742187,-3.886667633056641,-0.6354286193847657,985.3656005859375
8534,-10.782976684570313,-6.540349273681641,2.504741363525391,985.3656005859375
8598,-8.326285400390626,-5.7384667968750005,2.446362762451172,985.3656005859375
8664,-6.944359130859375,-5.479056243896484,1.5118560791015625,985.3656005859375
8738,-7.323820037841797,-5.1608180236816406,1.1476634216308594,985.3656005859375
8799,-7.63771728515625,-5.19479736328125,1.9706520080566408,985.3656005859375
8864,-7.621251525878907,-5.727539520263672,1.623673553466797,985.3595733642578
8933,-7.149881744384766,-5.492677917480469,1.2954061889648438,985.3595733642578
8998,-7.6667568969726565,-5.677393798828125,1.6660354614257813,985.3595733642578
9064,-8.989107055664062,-6.702911224365235,2.7273284912109377,985.3595733642578
9133,-11.02472396850586,-9.136251068115234,2.5068370056152345,985.3595733642578
9198,-12.01147201538086,-9.909393310546875,1.176104278564453,985.3595733642578
9264,-6.852749633789063,-5.855972442626953,0.23665786743164063,985.3595733642578
9333,-4.595892791748047,-5.452860717773437,0.5956114196777345,985.3595733642578
9398,-4.420457611083984,-5.059927825927734,-0.06256988525390625,985.3595733642578
9464,-3.1093341064453126,-4.6360093688964845,-1.1623329162597658,985.3595733642578
9531,-6.436165924072266,-6.433920593261719,0.2540217590332031,985.3595733642578
9598,-9.889335021972657,-9.394613800048829,1.4322216796875,985.3595733642578
9664,-6.930438079833984,-5.256169738769532,4.2325982666015625,985.3595733642578
9730,-6.777156829833984,-6.354136505126953,2.8213330078125,985.3595733642578
9798,-6.198609924316407,-7.074288940429688,2.9115953063964843,985.3478240966797
9864,-5.996829528808594,-7.317084045410157,3.9143600463867188,985.3478240966797
9936,-3.805835723876953,-6.499783630371094,4.506678314208985,985.3478240966797
9998,-3.091670837402344,-6.643185424804688,4.8174320983886725,985.3478240966797
10064,-2.518662414550781,-5.435796203613282,5.095254364013672,985.3478240966797
10130,-1.2015513610839845,-5.203329620361329,6.095624084472656,985.3478240966797
10198,-10.867999877929687,-13.23817108154297,9.028026123046875,985.3478240966797
10264,-4.170776824951172,-7.669600982666016,6.2032502746582034,985.3478240966797
10330,-8.774303741455078,-7.707921295166016,2.0151095581054688,985.3478240966797
10398,-7.332352294921876,-6.651567993164063,3.2754885864257814,985.3478240966797
10464,-2.575394439697266,-1.820065155029297,0.4981640625,985.3478240966797
10530,-3.933520202636719,-2.448757781982422,0.22513183593750002,985.3478240966797
10598,-11.364667053222657,-8.698261871337891,1.6172369384765626,985.3478240966797
10664,-10.49587371826172,-6.836283874511719,1.7585430908203126,985.3478240966797
10730,-4.938081207275391,-3.5214271545410156,0.5921685791015625,985.3365325927734
10798,-8.097111968994142,-5.950725402832031,1.4543756103515626,985.3365325927734
10864,-8.333620147705078,-5.541027374267578,1.9284397888183595,985.3365325927734
10930,-8.057145080566407,-5.7983422851562505,1.9808308410644533,985.3365325927734
10998,-7.343728637695313,-5.7577766418457035,1.6444802856445313,985.3365325927734
11064,-7.260950775146485,-5.516179046630859,1.756597137451172,985.3365325927734
11130,-7.485932922363282,-5.230423278808594,2.01181640625,985.3365325927734
11198,-8.407117309570314,-6.031407623291016,2.1188438415527346,985.3365325927734
11264,-10.735824737548828,-8.206384735107422,2.016756134033203,985.3365325927734
11330,-14.014307098388672,-10.703042907714844,2.2757176208496093,985.3365325927734
11398,-9.010213165283204,-7.785460052490235,-0.8262817382812501,985.3365325927734
11464,-2.3674768066406253,-3.234174499511719,-0.00239501953125,985.3365325927734
11530,-2.4764501953125,-2.9990135192871095,2.7861561584472656,985.3365325927734
11598,-4.717290344238282,-5.230423278808594,-0.5011578369140626,985.3365325927734
11664,-9.519454193115235,-8.58180404663086,-0.8225395202636719,985.322265625
11730,-7.694748687744141,-6.464157714843751,-0.03667373657226563,985.322265625
11798,-6.956034851074219,-6.35204086303711,1.0880873107910156,985.322265625
11864,-6.767726440429688,-5.968837738037109,1.7137861633300782,985.322265625
11930,-7.109016723632813,-6.369404754638672,0.9900411987304688,985.322265625
11998,-6.995253295898438,-6.161337432861329,1.679956512451172,985.322265625
12064,-7.144492950439454,-6.402635650634766,1.6209791564941407,985.322265625
12130,-8.721313934326172,-6.389013977050782,2.7042764282226566,985.322265625
12198,-6.956633605957031,-6.611301727294922,2.5773403930664065,985.322265625
12264,-5.722150726318359,-6.791227569580078,4.14577880859375,985.322265625
12330,-3.7178187561035156,-6.142326965332032,5.113067321777344,985.322265625
12398,-3.100951538085938,-6.465355224609375,5.3316128540039065,985.322265625
12464,-2.305954742431641,-5.143903198242188,5.427114257812501,985.322265625
12530,-3.22130126953125,-6.423741760253907,8.639434204101564,985.322265625
12598,-10.393336944580078,-10.286159820556641,6.110443267822266,985.322265625
12664,-6.394253082275391,-7.226821746826173,4.139940948486329,985.3034210205078
12732,-9.17097885131836,-7.530091094970704,2.847378845214844,985.3034210205078
12798,-7.448660430908204,-6.006259918212891,2.155218200683594,985.3034210205078
12864,-3.8001475524902344,-2.3640339660644534,0.5882766723632813,985.3034210205078
12931,-4.539909210205078,-2.981350250244141,-0.0077838134765625,985.3034210205078
12998,-9.278904418945313,-6.783892822265625,-0.2293231201171875,985.3034210205078
13064,-9.418264617919922,-7.162305908203125,1.6143928527832032,985.3034210205078
13131,-7.362290039062501,-5.549559631347656,1.881287841796875,985.3034210205078
13198,-6.986122283935547,-4.934937744140625,1.9240988159179688,985.3034210205078
13264,-7.708370361328125,-5.5428236389160155,1.584155731201172,985.3034210205078
13332,-8.022417297363281,-5.982160034179688,2.1537213134765625,985.3034210205078
13398,-7.504494323730469,-5.686973876953125,2.208357696533203,985.3034210205078
13464,-7.545059967041016,-5.707630920410157,1.6281642150878908,985.3034210205078
13530,-7.222929840087891,-5.824238433837891,1.2603790283203125,985.3034210205078
13598,-7.415130157470704,-5.547763366699219,1.1695179748535156,985.2897644042969
13664,-7.704029388427735,-5.838309173583984,1.7130377197265625,985.2897644042969
13732,-9.688602447509766,-8.056995391845703,1.8113832092285158,985.2897644042969
13798,-11.007809143066407,-8.980425109863281,1.9917581176757813,985.2897644042969
13864,-10.660231933593751,-10.33166519165039,-1.5627502441406251,985.2897644042969
13930,-4.960833892822266,-6.617438964843751,1.0605445861816407,985.2897644042969
13998,-4.7698310852050785,-5.19000732421875,1.9353254699707032,985.2897644042969
14064,-4.569846954345703,-5.695506134033203,-0.2601589965820313,985.2897644042969
14130,-4.352199554443359,-4.759502563476563,0.31404693603515627,985.2897644042969
14198,-5.393583984375001,-4.719835052490235,0.5661227416992187,985.2897644042969
14264,-9.828411712646485,-7.972570953369141,1.2418176269531251,985.2897644042969
14331,-7.511380004882813,-6.390211486816407,1.7883311462402345,985.2897644042969
14398,-6.470145263671875,-5.4372930908203125,1.735191650390625,985.2897644042969
14464,-7.655380554199219,-5.979315948486328,1.8519488525390626,985.2897644042969
14530,-7.588469696044922,-5.849086761474609,2.1579125976562503,985.2694702148438
14598,-6.507417755126953,-5.966293029785157,1.5323634338378906,985.2694702148438
14664,-7.988587646484375,-8.14351547241211,2.5839266967773438,985.2694702148438
14730,-7.060367889404297,-5.332510986328125,1.2807366943359375,985.2694702148438
14798,-6.779851226806641,-5.9761724853515625,2.654879150390625,985.2694702148438
14864,-6.666985931396485,-6.061345367431641,2.496508483886719,985.2694702148438
14932,-5.329217834472656,-5.5612353515625,2.7987300109863282,985.2694702148438
14998,-7.021149444580079,-6.771768035888672,4.011957092285156,985.2694702148438
15064,-8.24410629272461,-6.331982574462891,4.275708618164063,985.2694702148438
15132,-7.907007293701172,-7.672445068359376,3.560346221923828,985.2694702148438
15198,-9.71419921875,-10.49781967163086,1.6905844116210937,985.2694702148438
15264,-4.642595672607422,-3.7973034667968752,0.3879931640625,985.2694702148438
15330,-7.981701965332031,-6.7123416137695315,0.8497828674316407,985.2694702148438
15398,-8.889564056396484,-6.197562103271484,1.8788928222656252,985.2694702148438
15464,-6.411467285156251,-5.202581176757813,1.3671070861816408,985.2500152587891
15532,-7.185956726074219,-5.2946397399902345,2.142943725585938,985.2500152587891
15598,-7.641160125732422,-5.537883911132813,1.879940643310547,985.2500152587891
15664,-7.708220672607422,-5.735922088623047,1.2494517517089845,985.2500152587891
15730,-5.647156677246094,-6.5080165100097656,2.2041664123535156,985.2500152587891
15798,-8.916657714843751,-5.224735107421875,4.9177235412597655,985.2500152587891
15864,-9.727222137451172,-7.353458404541016,2.7824139404296875,985.2500152587891
15930,-9.512269134521485,-8.006849670410157,1.061143341064453,985.2500152587891
15998,-4.816683654785156,-5.007387084960937,-0.5626799011230469,985.2500152587891
16064,-6.862778778076172,-6.174060974121094,1.199605407714844,985.2500152587891
16130,-8.14201858520508,-6.292464752197266,1.8001565551757814,985.2500152587891
16198,-5.838458862304687,-5.124443664550782,1.046473846435547,985.2500152587891
16264,-7.190896453857422,-6.927743682861329,3.656147003173828,985.2500152587891
16330,-5.1239945983886726,-4.874164123535157,3.4217344665527345,985.2500152587891
16398,-7.486681365966797,-6.499035186767578,6.211183776855469,985.2500152587891
16464,-8.055049438476562,-6.53166732788086,4.783901824951172,985.2284240722656
16532,-6.919810180664063,-7.3268138122558595,1.5031741333007813,985.2284240722656
16598,-10.365794219970704,-9.098080444335938,1.9223025512695313,985.2284240722656
16664,-5.136718139648438,-3.215014343261719,0.5530998229980469,985.2284240722656
16730,-8.12585220336914,-5.2383567810058596,0.7381150817871094,985.2284240722656
16798,-9.741292877197266,-7.372319183349609,2.266885986328125,985.2284240722656
16864,-5.46782958984375,-4.212390289306641,1.0804531860351563,985.2284240722656
16930,-7.536078643798828,-5.421276397705078,2.29921875,985.2284240722656
16998,-7.641309814453125,-6.755751342773438,1.4696438598632813,985.2284240722656
17064,-6.660100250244141,-6.219266967773438,3.4316139221191406,985.2284240722656
17130,-7.653883666992188,-5.022206268310547,2.3740631103515626,985.2284240722656
17198,-9.208999786376953,-5.252876586914063,2.697989501953125,985.2284240722656
17264,-9.762249298095703,-6.724017333984375,2.4956103515625,985.2284240722656
17330,-7.297025756835938,-5.964646453857422,1.0089019775390626,985.2284240722656
17398,-6.671177215576172,-6.100414123535157,0.7023394775390626,985.2180480957031
17464,-8.440198516845703,-6.238277435302734,0.8559201049804688,985.2180480957031
17532,-6.077661437988281,-5.105582885742188,0.07768844604492188,985.2180480957031
17597,-6.884633331298828,-6.506819000244141,1.5491285705566407,985.2180480957031
17664,-6.832242279052735,-6.643185424804688,2.7836114501953126,985.2180480957031
17730,-6.135141906738282,-6.464756469726563,5.000800781250001,985.2180480957031
17798,-8.072413330078126,-6.436614990234375,5.505700836181641,985.2180480957031
17864,-8.619375915527344,-7.129224700927734,3.8871166992187502,985.2180480957031
17930,-8.196505279541016,-6.85215087890625,0.8140072631835938,985.2180480957031
17998,-4.956193542480469,-3.739972686767578,0.29174331665039066,985.2180480957031
18064,-9.432185668945314,-5.873186645507813,0.9071136474609376,985.2180480957031
18130,-9.063352661132813,-6.782994689941407,2.1656964111328127,985.2180480957031
18198,-6.133345642089844,-4.738396453857422,1.0708731079101563,985.2180480957031
18264,-7.61661117553711,-5.802533569335938,0.5397775268554688,985.2180480957031
18330,-7.827223205566407,-6.446793823242188,1.1599378967285157,985.2131652832031
18398,-7.257657623291016,-6.5873515319824225,2.689157867431641,985.2131652832031
18464,-8.694220275878907,-5.540727996826172,4.130809936523438,985.2131652832031
18530,-10.016271057128908,-6.392007751464844,2.918181610107422,985.2131652832031
18598,-7.624844055175782,-5.980513458251953,0.6854246520996095,985.2131652832031
18665,-5.3209849548339845,-4.673880615234375,0.2613565063476563,985.2131652832031
18730,-8.278684387207031,-7.5059912109375,-0.10942245483398438,985.2131652832031
18798,-7.0802764892578125,-6.872059478759766,0.317340087890625,985.2131652832031
18864,-5.079387359619141,-5.019661560058594,0.8122109985351563,985.2131652832031
18931,-6.683601379394531,-6.964567108154297,2.1875509643554687,985.2131652832031
18997,-6.333030395507813,-6.198460235595704,1.5666421508789063,985.2131652832031
19064,-6.942413177490235,-5.7172109985351565,6.9042425537109375,985.2131652832031
19130,-7.874524841308594,-6.491850128173828,4.889132995605469,985.2131652832031
19198,-9.571396179199219,-8.563841400146485,2.7307713317871096,985.2131652832031
19264,-7.1964349365234375,-6.688391418457032,1.6389418029785157,985.2131652832031
19330,-5.103636932373047,-3.6115397644042972,0.5873785400390625,985.2131652832031
19398,-9.97241226196289,-6.788383483886719,-0.7429051208496094,985.2131652832031
19464,-7.214846649169922,-5.478307800292969,1.6340020751953126,985.2131652832031
19530,-6.225853271484375,-4.869823150634766,0.8071215820312501,985.2131652832031
19598,-7.3527099609375,-5.728587341308594,1.3030403137207032,985.2131652832031
19664,-8.206833801269532,-6.447542266845703,1.6371455383300781,985.2131652832031
19732,-8.144712982177735,-6.749015350341797,2.08845703125,985.2131652832031
19798,-9.767638092041016,-7.608527984619141,6.372697906494141,985.2131652832031
19864,-7.027885437011719,-5.2858081054687505,0.5685177612304688,985.2131652832031
19940,-6.062692565917969,-6.091732177734375,-0.22153930664062502,985.2131652832031
19998,-8.34993621826172,-8.157735900878906,0.38290374755859374,985.2131652832031
20064,-6.744225311279298,-6.051316223144531,0.6041436767578126,985.2131652832031
20131,-4.824467468261719,-5.1397119140625005,0.5551954650878906,985.2131652832031
20198,-7.275620269775391,-6.665339355468751,2.096540222167969,985.2131652832031
20265,-7.372618560791016,-6.320157165527344,2.677781524658203,985.2168273925781
20330,-6.4147604370117195,-6.917115783691407,5.903124389648438,985.2168273925781
20398,-8.928183746337892,-6.833290100097656,7.734416198730469,985.2168273925781
20464,-6.943311309814454,-7.6490936279296875,-2.329306182861328,985.2168273925781
20532,-9.291777648925782,-6.886279907226563,4.557123413085938,985.2168273925781
20598,-4.226311340332032,-3.174149322509766,-0.34129028320312504,985.2168273925781
20665,-8.78298568725586,-5.731581115722657,0.41388931274414065,985.2168273925781
20730,-12.237801361083985,-8.110583953857422,2.7354116821289063,985.2168273925781
20798,-5.278173980712891,-4.212539978027344,0.9428892517089844,985.2168273925781
20864,-6.713389434814453,-7.366032257080079,2.840193786621094,985.2168273925781
20930,-7.1437445068359375,-7.060816955566406,3.067720642089844,985.2168273925781
20998,-6.754703521728516,-5.68338134765625,1.7366885375976564,985.2168273925781
21064,-7.276368713378907,-6.007607116699219,1.2611274719238281,985.2168273925781
21130,-8.259673919677734,-7.068600769042969,1.5564633178710938,985.2168273925781
21198,-7.827821960449219,-6.778054962158204,1.7375866699218752,985.2245330810547
21265,-8.950038299560548,-6.931336212158204,2.5117767333984378,985.2245330810547
21330,-6.916966094970704,-7.114405517578126,0.8189469909667969,985.2245330810547
21398,-6.534960479736329,-10.1548828125,3.4443374633789063,985.2245330810547
21464,-6.084247741699219,-5.553301849365234,1.799857177734375,985.2245330810547
21530,-6.629264373779297,-6.6506698608398445,3.3253349304199222,985.2245330810547
21598,-3.583847351074219,-6.056854705810547,3.988605651855469,985.2245330810547
21664,-6.0820024108886726,-7.156917114257813,5.6474560546875,985.2245330810547
21730,-2.7943890380859377,-5.704038391113282,3.5988162231445315,985.2245330810547
21798,-2.0673509216308594,-6.524931335449219,6.241570587158203,985.2245330810547
21864,-2.6744883728027347,-6.319708099365235,5.739215240478516,985.2245330810547
21930,-2.5095314025878905,-6.783593444824219,6.188431091308594,985.2245330810547
21998,-1.8003062438964845,-5.908064117431641,5.966293029785157,985.2245330810547
22064,-0.87418212890625,-5.148693237304688,5.539680175781251,985.2245330810547
22130,-4.946763153076172,-10.029892730712891,11.864178314208985,985.2333068847656
22198,-0.8663983154296876,-6.476731567382813,2.5643174743652346,985.2333068847656
22264,-6.631659393310547,-7.461383972167969,4.492008819580079,985.2333068847656
22330,-5.888903961181641,-7.205565948486329,4.2854383850097655,985.2333068847656
22398,-5.779182128906251,-5.511987762451172,1.6733702087402345,985.2333068847656
22464,-7.503446502685548,-6.748865661621094,2.6340724182128907,985.2333068847656
22530,-7.7883041381835945,-6.822811889648438,2.4034020996093752,985.2333068847656
22597,-8.241411895751954,-6.762936401367188,2.393672332763672,985.2333068847656
22664,-6.868466949462891,-4.859045562744141,0.12020004272460938,985.2333068847656
22730,-7.588469696044922,-5.42950927734375,0.580642547607422,985.2333068847656
22798,-8.2771875,-5.212909698486328,0.9993218994140626,985.2333068847656
22864,-7.808811492919922,-4.624483337402344,0.95082275390625,985.2333068847656
22930,-7.12323715209961,-5.066514129638672,1.3433065795898438,985.2333068847656
22998,-7.529791717529298,-5.742508392333985,1.8814375305175781,985.2333068847656
23065,-7.465425567626953,-6.066883850097657,1.9354751586914063,985.2333068847656
23130,-7.2495744323730476,-6.091432800292969,1.9583775329589845,985.2333068847656
23198,-7.1736822509765625,-5.881419525146485,1.7631834411621095,985.2333068847656
23264,-7.395071868896485,-5.761069793701172,1.7648300170898439,985.2333068847656
23330,-8.075856170654298,-6.110293579101563,1.9974462890625,985.2333068847656
23398,-8.944948883056641,-6.99345703125,2.0517832946777346,985.2333068847656
23464,-10.800041198730469,-9.117989044189454,1.4748829650878907,985.2333068847656
23531,-12.131971435546875,-9.900112609863282,2.9431796264648438,985.2333068847656
23598,-6.1716659545898445,-5.337151336669923,0.4285588073730469,985.2333068847656
23664,-4.674030303955078,-5.04915023803711,0.2136058044433594,985.2333068847656
23730,-6.424340515136719,-5.420527954101563,0.5381309509277344,985.2333068847656
23798,-3.360062713623047,-5.929768981933594,-2.6033862304687503,985.2333068847656
23864,-6.009253692626953,-7.761809234619141,-0.2628533935546875,985.2333068847656
23930,-9.975555725097657,-8.903934173583984,6.113736419677735,985.2333068847656
23998,-7.416477355957031,-6.441405029296876,4.916376342773438,985.2333068847656
24065,-2.8756700134277344,-6.6946783447265625,4.197720794677735,985.2304840087891
24130,-3.8682559204101565,-6.619833984375,3.8184095764160157,985.2304840087891
24198,-3.5974690246582033,-6.64857421875,5.670957183837891,985.2304840087891
24264,-0.37901184082031253,-6.135141906738282,4.860991516113281,985.2304840087891
24330,-2.29921875,-5.943989410400391,5.392685852050781,985.2304840087891
24397,-2.5372238159179688,-8.451574859619141,5.181624755859375,985.2304840087891
24464,-3.4899925231933597,-9.936037902832032,9.674831085205078,985.2304840087891
24530,-7.369624786376954,-9.168733520507812,6.402186584472656,985.2304840087891
24598,-7.9466748046875,-5.773194580078125,1.693428497314453,985.2304840087891
24665,-5.321883087158203,-5.989345092773438,2.6137147521972657,985.2304840087891
24730,-6.730304260253907,-4.839136962890625,3.2944990539550782,985.2304840087891
24798,-7.716902618408204,-7.0802764892578125,2.4815396118164066,985.2304840087891
24864,-7.413782958984376,-6.264023895263672,2.279459838867188,985.2304840087891
24939,-7.2618489074707036,-4.300706634521484,0.2016307067871094,985.2304840087891
24998,-7.246730346679688,-4.759053497314453,-1.251248016357422,985.2182769775391
25064,-8.571325836181641,-5.567971343994141,1.2500505065917968,985.2182769775391
25132,-8.236771545410157,-6.103407897949219,1.611698455810547,985.2182769775391
25198,-7.3760614013671875,-5.874384155273438,1.9983444213867188,985.2182769775391
25264,-7.506589965820313,-6.170318756103516,1.9622694396972657,985.2182769775391
25330,-7.306755523681641,-5.9022262573242195,2.06690185546875,985.2182769775391
25398,-6.728807373046875,-5.426216125488281,1.5408956909179687,985.2182769775391
25464,-7.135511627197266,-5.70778060913086,1.3654605102539064,985.2182769775391
25530,-9.181756439208986,-7.334597625732422,2.0938458251953125,985.2182769775391
25598,-10.51697982788086,-9.307644653320313,2.419119415283203,985.2182769775391
25664,-10.89778793334961,-8.200846252441407,3.751648406982422,985.2182769775391
25730,-7.007527770996094,-5.936654663085938,2.2363494873046874,985.2182769775391
25798,-5.826932830810547,-5.186564483642578,1.3190570068359375,985.2182769775391
25864,-5.788013763427735,-5.521418151855469,0.6747967529296875,985.2182769775391
25931,-4.063150634765625,-4.799020385742188,-0.3918850708007813,985.2018737792969
25998,-4.133504333496094,-5.883964233398438,-0.3441343688964844,985.2018737792969
26064,-8.58809097290039,-10.91739715576172,5.2355126953125,985.2018737792969
26130,-9.5178076171875,-5.132227478027344,3.3358131408691407,985.2018737792969
26198,-3.0526020812988284,-6.34006576538086,4.250860290527344,985.2018737792969
26264,-4.226461029052735,-6.0044636535644536,5.20916748046875,985.2018737792969
26330,-4.578229522705079,-6.14322509765625,5.370531921386719,985.2018737792969
26398,-3.0888267517089845,-5.603297882080079,5.281616821289063,985.2018737792969
26464,-1.901495819091797,-4.758754119873047,6.255192260742188,985.2018737792969
26530,-3.2681538391113283,-5.481151885986328,8.912167053222657,985.2018737792969
26598,-9.884994049072267,-10.77474380493164,-0.49786468505859377,985.2018737792969
26664,-2.8003765869140627,-5.905070343017578,4.194577331542969,985.2018737792969
26730,-8.862769775390625,-7.256011047363281,3.8899607849121094,985.2018737792969
26798,-6.575376434326172,-5.126389617919922,2.2899380493164063,985.2018737792969
26864,-7.201524353027344,-5.6645205688476565,3.0320947265625002,985.1808166503906
26930,-5.354365539550781,-3.962110748291016,1.954186248779297,985.1808166503906
26998,-6.7915269470214845,-4.873415679931641,2.2002745056152344,985.1808166503906
27064,-9.155710601806641,-6.64902328491211,2.5132736206054687,985.1808166503906
27130,-7.833510131835938,-5.345982971191407,2.3574476623535157,985.1808166503906
27198,-6.061944122314453,-4.2219703674316404,1.68848876953125,985.1808166503906
27265,-7.649692382812501,-5.930068359375,2.3833438110351564,985.1808166503906
27331,-7.53233642578125,-6.115832061767579,2.5713528442382816,985.1808166503906
27398,-7.472760314941406,-6.061195678710938,2.7090664672851563,985.1808166503906
27464,-7.331753540039063,-5.826633453369141,2.6662554931640625,985.1808166503906
27530,-7.315886535644531,-5.250331878662109,2.5535398864746095,985.1808166503906
27598,-7.60703109741211,-5.327870635986328,2.7892996215820314,985.1808166503906
27664,-7.014563140869141,-5.372627563476563,2.2405407714843752,985.1808166503906
27732,-7.937244415283203,-5.882317657470703,2.520608367919922,985.1808166503906
27798,-9.786648559570313,-7.721093902587891,2.671344909667969,985.1808166503906
27865,-10.591824188232422,-9.28833480834961,2.7916946411132812,985.1537322998047
27930,-9.896520080566408,-9.070238342285156,1.4287788391113283,985.1537322998047
27998,-4.487218780517578,-5.1492919921875,0.5306465148925782,985.1537322998047
28064,-4.756209411621094,-7.973618774414063,2.302511901855469,985.1537322998047
28131,-3.207978973388672,-6.677613830566407,-0.67060546875,985.1537322998047
28198,-4.569996643066406,-5.5164784240722655,-0.04176315307617188,985.1537322998047
28264,-7.916737060546875,-7.196285247802734,1.4289285278320314,985.1537322998047
28332,-7.4818913269042975,-7.366930389404297,2.6887088012695313,985.1537322998047
28397,-5.93770248413086,-6.920558624267579,3.5594480895996097,985.1537322998047
28464,-6.0498193359375,-7.368576965332031,2.2579046630859376,985.1537322998047
28530,-6.501579895019532,-5.673501892089844,3.204087066650391,985.1537322998047
28598,-7.907007293701172,-5.682034149169922,3.269950103759766,985.1537322998047
28664,-5.273084564208984,-7.633076934814453,3.9604641723632814,985.1537322998047
28730,-3.028502197265625,-6.0923309326171875,5.716462554931641,985.1537322998047
28798,-3.5630406188964847,-6.666087799072266,5.0602272033691404,985.1414489746094
28865,-2.66565673828125,-5.895639953613282,5.803880767822266,985.1414489746094
28930,-2.1056712341308597,-6.196963348388672,6.07900863647461,985.1414489746094
28998,-1.4796730041503907,-5.20722152709961,6.038742370605469,985.1414489746094
29064,-6.93837158203125,-13.445040893554689,11.809541931152344,985.1414489746094
29130,-5.03672607421875,-7.8700341796875,4.577780456542969,985.1414489746094
29198,-7.377408599853516,-6.086343383789063,3.0205686950683597,985.1414489746094
29264,-9.065298614501954,-7.05138656616211,3.6985089111328127,985.1414489746094
29330,-7.778424682617188,-5.915398864746094,2.544558563232422,985.1414489746094
29398,-5.0605265808105475,-4.200714569091797,1.7548008728027344,985.1414489746094
29465,-4.70621337890625,-3.540886688232422,0.8077203369140625,985.1414489746094
29530,-6.9500473022460945,-5.122198333740235,1.3605207824707033,985.1414489746094
29598,-10.641670532226563,-6.421795806884766,2.2842498779296876,985.1414489746094
29664,-8.749904479980469,-6.07616455078125,3.6036062622070313,985.1414489746094
29730,-5.680986328125,-4.470603332519532,1.3765374755859376,985.1273345947266
29798,-6.887926483154297,-5.888604583740235,1.614093475341797,985.1273345947266
29864,-7.267686767578125,-5.950875091552735,2.5774900817871096,985.1273345947266
29934,-8.470884704589844,-6.869963836669922,3.3093182373046877,985.1273345947266
29998,-6.528074798583985,-5.859564971923828,2.3634352111816406,985.1273345947266
30064,-7.206913146972656,-5.607788543701172,2.3381378173828127,985.1273345947266
30130,-6.813531188964844,-5.39597900390625,1.706451416015625,985.1273345947266
30198,-8.130043487548829,-6.184539184570313,1.948348388671875,985.1273345947266
30264,-8.853189697265625,-6.704408111572266,2.3706202697753906,985.1273345947266
30330,-10.228080596923828,-8.393196258544922,2.33993408203125,985.1273345947266
30398,-12.339290313720705,-9.844578094482422,2.870580596923828,985.1273345947266
30464,-7.749983825683594,-7.388485565185547,-0.10343490600585938,985.1273345947266
30531,-5.498066711425782,-6.15085922241211,1.3015434265136718,985.1273345947266
30598,-3.267555084228516,-2.997217254638672,0.6242019653320313,985.1273345947266
30664,-1.1505075073242188,-3.8505926513671875,-2.538421325683594,985.1120758056641
30730,-5.037773895263672,-5.5146821594238284,-0.4421804809570313,985.1120758056641
30798,-11.661948852539062,-12.398267669677734,0.6304888916015625,985.1120758056641
30865,-7.692802734375,-5.49177978515625,3.603456573486328,985.1120758056641
30930,-4.8789541625976565,-5.351222076416016,1.5934364318847658,985.1120758056641
30998,-7.673343200683594,-6.793023834228516,5.114264831542969,985.1120758056641
31065,-6.4905029296875005,-7.227270812988282,3.783532104492188,985.1120758056641
31130,-5.79879135131836,-6.603368225097657,5.150788879394532,985.1120758056641
31198,-4.064497833251953,-6.572682037353516,4.961432647705078,985.1120758056641
31264,-4.110901336669922,-6.4393093872070315,4.85275863647461,985.1120758056641
31331,-3.5093023681640627,-7.353907470703126,5.117857360839844,985.1120758056641
31398,-3.9389089965820316,-6.582112426757813,5.390141143798829,985.1120758056641
31464,-3.309767303466797,-5.921985168457032,5.813460845947266,985.1120758056641
31531,-3.190764770507813,-5.4531600952148445,5.953868865966797,985.1120758056641
31598,-3.434308319091797,-5.4248689270019534,8.056995391845703,985.1120758056641
31664,-12.476854248046875,-14.813495178222658,8.06492889404297,985.098876953125
31732,-4.810546417236329,-6.6946783447265625,4.651576995849609,985.098876953125
31798,-5.8089701843261725,-6.558611297607422,2.295626220703125,985.098876953125
31865,-6.825655975341797,-5.949527893066406,3.3019834899902345,985.098876953125
31930,-6.227499847412109,-3.8043388366699222,2.1621038818359377,985.098876953125
31998,-5.914201354980469,-4.679119720458985,1.0882369995117187,985.098876953125
32064,-8.491691436767578,-6.177803192138672,3.296445007324219,985.098876953125
32130,-8.794062652587892,-7.146438903808594,3.0867311096191408,985.098876953125
32198,-4.641547851562501,-3.850892028808594,1.1611354064941406,985.098876953125
32264,-5.416935424804688,-4.497247924804688,2.0014878845214845,985.098876953125
32332,-9.571545867919923,-7.434739379882813,2.5294400024414063,985.098876953125
32398,-7.477999420166016,-5.281317443847657,2.491568756103516,985.098876953125
32464,-7.477849731445313,-5.528453521728516,2.2742207336425784,985.098876953125
32531,-7.646548919677735,-6.105653228759766,2.2435345458984375,985.098876953125
32598,-7.045399017333985,-6.059249725341798,3.3922457885742188,985.087890625
32664,-7.09210189819336,-5.354066162109375,2.494263153076172,985.087890625
32730,-7.903265075683594,-6.1611877441406255,2.5641677856445315,985.087890625
32798,-9.654024353027344,-8.170010375976563,2.889441375732422,985.087890625
32865,-11.522139587402345,-9.372759246826172,2.6896069335937502,985.087890625
32932,-9.50478469848633,-9.272168426513673,-0.8023315429687501,985.087890625
32998,-4.126169586181641,-4.993915100097657,0.7015910339355469,985.087890625
33064,-3.46080322265625,-5.655239868164063,-0.02245330810546875,985.087890625
33130,-2.773282928466797,-5.2382070922851565,-0.6881190490722656,985.087890625
33198,-6.270460510253907,-8.202193450927735,0.47062133789062505,985.087890625
33264,-11.491303710937501,-10.84360061645508,8.92758499145508,985.087890625
33331,-6.032605133056641,-5.802383880615235,4.180506591796875,985.087890625
33397,-2.883453826904297,-7.675139465332031,3.254532165527344,985.087890625
33464,-3.677402801513672,-6.29216537475586,4.733756103515625,985.087890625
33530,-2.0977377319335937,-6.737938385009766,5.6293437194824225,985.072021484375
33598,-2.1106109619140625,-7.169790344238281,5.050796813964844,985.072021484375
33665,-1.5070660400390625,-7.026538238525391,6.638994140625,985.072021484375
33730,-1.1585906982421876,-6.824159088134766,5.604196014404297,985.072021484375
33798,-0.6508465576171876,-6.749464416503907,5.968388671875,985.072021484375
33864,-0.24414230346679688,-5.376369781494141,4.133055267333985,985.072021484375
33930,-0.23650817871093752,-6.307882690429688,6.176455993652344,985.072021484375
33998,-11.381282501220703,-16.862284698486327,4.727020111083984,985.072021484375
34064,-0.08696914672851563,-7.1911958312988284,7.021748199462891,985.072021484375
34130,-8.070766754150391,-9.090745697021484,4.08874740600586,985.072021484375
34198,-6.900799713134766,-7.731422424316406,3.958817596435547,985.072021484375
34264,-5.902525634765626,-5.656587066650391,2.2838008117675783,985.072021484375
34330,-4.584666137695312,-3.2154634094238284,1.5139517211914064,985.072021484375
34398,-6.314468994140626,-4.434827728271484,-0.4448748779296875,985.072021484375
34465,-9.753267974853516,-7.7838134765625,1.913470916748047,985.0588226318359
34531,-8.382268981933594,-6.640041961669922,3.2409104919433593,985.0588226318359
34597,-5.927523651123047,-4.429289245605469,2.2977218627929688,985.0588226318359
34665,-7.358248443603516,-6.081253967285156,2.4239094543457034,985.0588226318359
34731,-7.06770263671875,-6.076314239501953,2.7629544067382814,985.0588226318359
34798,-7.456593933105469,-6.7334477233886725,2.6240432739257815,985.0588226318359
34865,-7.019502868652344,-5.773493957519531,3.169808349609375,985.0588226318359
34942,-6.958280181884766,-5.8176521301269535,2.368973693847656,985.0588226318359
34998,-6.887178039550782,-5.95207260131836,1.8175204467773438,985.0588226318359
35065,-7.6438545227050785,-6.132297821044922,2.3417303466796877,985.0588226318359
35130,-8.679700469970703,-7.283853149414063,3.069067840576172,985.0588226318359
35198,-10.441237335205079,-9.277108154296876,3.665427703857422,985.0588226318359
35264,-11.952794036865235,-9.946665802001954,4.395908660888672,985.0588226318359
35330,-6.74482406616211,-5.672304382324219,-0.5604345703125,985.0588226318359
35398,-3.9604641723632814,-4.982239379882813,-0.3180885314941406,985.0588226318359
35464,-3.6049534606933595,-6.213429107666016,1.7354910278320312,985.0434875488281
35531,-3.260968780517578,-6.308780822753906,-1.6127462768554688,985.0434875488281
35598,-6.562952270507813,-6.6541127014160155,0.08637039184570312,985.0434875488281
35664,-9.24717041015625,-8.826844482421876,2.225871276855469,985.0434875488281
35730,-6.858587493896485,-5.574258270263672,2.844684448242188,985.0434875488281
35798,-5.708978118896485,-6.065087585449219,2.4385789489746097,985.0434875488281
35865,-6.2155247497558594,-7.4043525695800785,2.5129742431640625,985.0434875488281
35930,-6.675817565917969,-6.668632507324219,3.3028816223144535,985.0434875488281
35998,-6.252797241210938,-7.888146514892578,4.451742553710938,985.0434875488281
36065,-4.101620635986328,-6.505771179199219,4.341421966552734,985.0434875488281
36130,-3.0662237548828126,-6.956034851074219,5.688321075439453,985.0434875488281
36198,-3.0961614990234376,-6.775061187744141,4.866380310058594,985.0434875488281
36264,-2.2448817443847657,-6.521338806152344,5.344037017822266,985.0434875488281
36330,-1.0844947814941406,-5.570965118408203,5.485792236328125,985.0434875488281
36398,-2.14833251953125,-7.3004685974121095,6.79946044921875,985.0283050537109
36464,-10.987601165771485,-9.07562713623047,3.9712417602539065,985.0283050537109
36531,-2.914289703369141,-8.057145080566407,5.712720336914063,985.0283050537109
36598,-9.422755279541017,-7.9097016906738284,3.1690599060058595,985.0283050537109
36664,-6.578220520019531,-7.244784393310547,1.8781443786621095,985.0283050537109
36730,-6.847510528564453,-5.599555664062501,3.174598388671875,985.0283050537109
36798,-3.8658609008789067,-2.3716680908203127,1.18074462890625,985.0283050537109
36864,-5.960604858398438,-4.580025787353516,-0.5146298217773437,985.0283050537109
36930,-11.079510040283203,-7.217091979980469,2.414928131103516,985.0283050537109
36998,-7.980953521728516,-6.562353515625,2.3141876220703126,985.0283050537109
37064,-5.112917633056641,-4.395160217285157,1.1653266906738282,985.0283050537109
37130,-7.835456085205078,-6.8725085449218755,2.585423583984375,985.0283050537109
37198,-7.936945037841797,-6.228697357177735,2.9490174865722656,985.0283050537109
37264,-7.62379623413086,-5.105133819580078,3.789669342041016,985.0283050537109
37330,-7.045399017333985,-5.931265869140625,1.70525390625,985.0102233886719
37398,-7.179370422363282,-5.706433410644531,1.8185682678222657,985.0102233886719
37465,-7.189100189208984,-5.575455780029297,1.6362474060058594,985.0102233886719
37530,-6.913223876953126,-5.58279052734375,1.7724641418457032,985.0102233886719
37598,-8.869805145263673,-7.818541259765626,2.5837770080566407,985.0102233886719
37664,-9.359886016845703,-9.631870422363281,3.3156051635742188,985.0102233886719
37730,-14.081667022705078,-11.3667626953125,2.884351959228516,985.0102233886719
37798,-7.76031234741211,-6.367758178710938,-0.37392242431640627,985.0102233886719
37864,-2.805466003417969,-3.188818817138672,0.4739144897460938,985.0102233886719
37930,-2.962339782714844,-5.157075805664062,1.1970606994628907,985.0102233886719
37998,-3.6244129943847656,-6.69407958984375,-1.706301727294922,985.0102233886719
38065,-7.364385681152344,-6.345304870605469,1.466799774169922,985.0102233886719
38130,-9.594747619628906,-8.762178955078125,1.094374237060547,985.0102233886719
38198,-5.702391815185547,-5.159770202636719,2.432142333984375,985.0102233886719
38264,-6.8548452758789065,-6.276298370361329,3.430715789794922,984.9951934814453
38332,-6.723717956542969,-7.0962931823730475,2.5066873168945314,984.9951934814453
38398,-7.569459228515625,-7.43458969116211,3.9305264282226564,984.9951934814453
38464,-5.713917846679688,-7.489525451660157,3.690276031494141,984.9951934814453
38531,-2.90036865234375,-6.695576477050782,5.021757202148438,984.9951934814453
38598,-3.3811688232421875,-6.924151153564454,5.321583709716797,984.9951934814453
38664,-2.211800537109375,-6.592291259765625,4.8332991027832035,984.9951934814453
38731,-1.4876065063476562,-5.467530212402344,5.217849426269532,984.9951934814453
38798,-1.5995736694335938,-5.732479248046875,7.058871002197266,984.9951934814453
38864,-13.078004150390626,-11.6541650390625,8.782835998535157,984.9951934814453
38930,-2.0184027099609376,-8.233029327392579,5.437891845703125,984.9951934814453
38998,-9.453441467285156,-7.566465454101563,3.2286360168457033,984.9951934814453
39064,-6.531517639160157,-5.552553405761719,3.166066131591797,984.9951934814453
39130,-4.223167877197266,-3.074157257080078,1.3611195373535157,984.9951934814453
39198,-4.893324279785157,-4.421954498291016,0.7319778442382813,984.9789428710938
39264,-8.178392944335938,-7.508685607910157,2.2231768798828124,984.9789428710938
39330,-9.14223861694336,-7.414082336425782,3.5057098388671877,984.9789428710938
39398,-6.495143280029297,-5.725743255615234,2.0459454345703127,984.9789428710938
39464,-6.561305694580079,-5.406457214355469,1.52083740234375,984.9789428710938
39530,-7.551945648193359,-5.079087982177735,1.6760646057128907,984.9789428710938
39598,-8.66757568359375,-5.693859558105469,2.425556030273438,984.9789428710938
39665,-8.142767028808594,-5.91330322265625,2.531385955810547,984.9789428710938
39731,-6.077062683105469,-6.662046203613282,2.435285797119141,984.9789428710938
39798,-6.135890350341797,-6.285130004882813,3.0371841430664066,984.9789428710938
39865,-6.374494171142579,-4.8967671203613286,1.8169216918945312,984.9789428710938
39942,-8.278983764648437,-6.650520172119141,1.2852273559570313,984.9789428710938
39998,-9.578581237792969,-8.106542358398437,2.1655467224121097,984.9789428710938
40064,-11.145223388671875,-10.05803421020508,2.7698400878906253,984.9789428710938
40130,-11.965517578125,-9.720486145019532,3.207529907226563,984.9789428710938
40198,-5.156027984619141,-4.965025177001953,-0.7749385070800782,984.9641418457031
40265,-3.5621424865722657,-4.118535461425782,1.2585827636718752,984.9641418457031
40330,-4.58691146850586,-6.155050506591797,-1.4485377502441408,984.9641418457031
40398,-2.6173072814941407,-5.618266754150391,-0.04834945678710938,984.9641418457031
40465,-7.214846649169922,-7.031627655029297,0.6453080749511719,984.9641418457031
40530,-10.195598144531251,-9.633367309570312,2.691852264404297,984.9641418457031
40598,-5.575904846191406,-5.25706787109375,2.8159442138671875,984.9641418457031
40665,-6.1258612060546875,-6.1857366943359375,3.4995726013183597,984.9641418457031
40730,-7.121740264892578,-7.416327667236328,3.5139427185058594,984.9641418457031
40798,-6.748266906738282,-7.3287597656250005,3.706292724609375,984.9641418457031
40865,-3.6152819824218754,-7.187154235839844,4.256847839355469,984.9641418457031
40930,-1.9971469116210938,-6.636299743652344,4.552782440185547,984.9641418457031
40997,-4.929848327636719,-7.436086578369141,3.459306335449219,984.9641418457031
41064,-0.21540206909179688,-5.9885966491699225,5.64985107421875,984.9641418457031
41131,-0.8518785095214845,-5.847739562988282,5.1150132751464845,984.9501800537109
41198,-1.469045104980469,-5.006339263916016,5.753884735107422,984.9501800537109
41265,-13.377680969238282,-18.510806579589843,6.98148193359375,984.9501800537109
41330,-2.3572979736328126,-5.117707672119141,4.404740295410156,984.9501800537109
41398,-9.358389129638672,-8.385262756347657,3.1126272583007815,984.9501800537109
41465,-7.275769958496094,-6.117628326416016,3.1883697509765625,984.9501800537109
41530,-4.38333480834961,-3.9579194641113284,1.8615289306640626,984.9501800537109
41598,-3.903283081054688,-3.523822174072266,1.1298504638671876,984.9501800537109
41664,-8.652008056640625,-6.334078216552735,0.7009922790527344,984.9501800537109
41730,-10.387499084472656,-7.756420440673828,2.787653045654297,984.9501800537109
41798,-5.7595729064941406,-4.197122039794922,1.4410533142089845,984.9501800537109
41864,-7.129524078369141,-5.781128082275391,1.8624270629882813,984.9501800537109
41932,-8.23602310180664,-5.792205047607422,2.711012420654297,984.9501800537109
41998,-8.09801010131836,-5.858816528320313,2.4836352539062503,984.9501800537109
42065,-7.542814636230469,-6.174959106445312,2.618055725097656,984.9368286132812
42131,-6.4761328125,-5.799390106201172,1.5169454956054689,984.9368286132812
42198,-7.242838439941407,-6.687044219970703,2.855012969970703,984.9368286132812
42264,-6.890770568847657,-5.548362121582032,2.2064117431640624,984.9368286132812
42330,-7.337292022705078,-5.693111114501954,1.61184814453125,984.9368286132812
42398,-7.771089935302735,-6.0555075073242195,1.9576290893554689,984.9368286132812
42465,-9.596244506835937,-7.714956665039063,2.804268493652344,984.9368286132812
42530,-12.16520233154297,-10.764714660644533,3.020868072509766,984.9368286132812
42598,-9.231902160644532,-7.677235107421875,1.7536033630371095,984.9368286132812
42664,-5.166955261230469,-6.393055572509766,-0.18815872192382813,984.9368286132812
42731,-3.8106257629394533,-4.423002319335938,1.875000915527344,984.9368286132812
42798,-1.9420614624023438,-3.7366795349121094,-1.2582833862304688,984.9368286132812
42864,-4.120930480957031,-5.843398590087891,-0.2472857666015625,984.9368286132812
42932,-10.389295349121094,-10.647658081054688,1.3006452941894533,984.9368286132812
42998,-7.530091094970704,-6.58914779663086,1.375938720703125,984.921875
43065,-5.5799464416503906,-5.249733123779297,1.5578105163574218,984.921875
43131,-6.609954528808594,-6.511758728027344,1.3076806640625,984.921875
43198,-7.894583129882813,-7.889044647216798,3.0252090454101563,984.921875
43265,-8.59527603149414,-7.435787200927734,2.6385630798339843,984.921875
43330,-5.795498199462891,-7.275620269775391,3.071612548828125,984.921875
43398,-5.210814056396485,-6.603667602539063,4.845274200439453,984.921875
43465,-1.737436981201172,-6.6807572937011726,4.862937469482422,984.921875
43531,-2.0471429443359375,-6.893464965820312,5.221741333007813,984.921875
43598,-0.8357121276855469,-5.515131225585938,5.109474792480469,984.921875
43665,-1.6233741760253908,-5.832920379638672,6.974446563720703,984.921875
43732,-7.033423919677735,-13.241613922119141,9.50583251953125,984.921875
43798,-3.6847375488281253,-8.070467376708985,4.886887664794922,984.921875
43865,-6.193670196533203,-6.5642994689941405,1.895508270263672,984.921875
43930,-7.190597076416016,-6.7352439880371096,3.749552764892578,984.921875
43998,-5.625002746582031,-4.236490173339844,3.184178466796875,984.9071502685547
44065,-5.691165161132813,-4.6749284362792976,2.2514680480957034,984.9071502685547
44130,-6.406527557373047,-5.994135131835938,1.6365467834472658,984.9071502685547
44198,-8.702453155517578,-7.096143493652344,3.1569351196289066,984.9071502685547
44265,-7.598049774169922,-5.749394073486329,2.4108865356445315,984.9071502685547
44330,-5.773344268798828,-4.645739135742188,1.7413288879394533,984.9071502685547
44398,-7.8357554626464845,-5.840704193115235,2.1595591735839843,984.9071502685547
44465,-7.933352508544922,-5.938899993896484,2.7460395812988283,984.9071502685547
44530,-6.690037994384766,-6.7210235595703125,3.2219000244140625,984.9071502685547
44598,-6.9623217773437505,-6.000571746826172,4.116589508056641,984.9071502685547
44665,-6.8162255859375005,-6.0378442382812505,1.6558566284179688,984.9071502685547
44731,-7.83695297241211,-6.602919158935547,2.0043319702148437,984.9071502685547
44798,-7.301067352294922,-5.805527343750001,1.8281483459472656,984.9071502685547
44864,-6.700815582275391,-5.288502502441407,2.0899539184570313,984.9071502685547
44939,-8.309220886230468,-6.563700714111328,2.4360342407226563,984.8950958251953
44998,-10.082882537841797,-8.608298950195312,2.728226623535156,984.8950958251953
45064,-10.630593566894532,-9.910291442871094,3.011587371826172,984.8950958251953
45131,-8.269852752685548,-7.084767150878907,2.8181895446777343,984.8950958251953
45198,-5.242548065185547,-4.52224594116211,1.6817527770996095,984.8950958251953
45265,-5.051395568847656,-5.463937683105469,0.2812651062011719,984.8950958251953
45330,-5.2031799316406255,-5.182971954345703,0.550704803466797,984.8950958251953
45398,-3.5582505798339845,-5.203928375244141,-1.0340496826171877,984.8950958251953
45465,-6.767576751708985,-9.265881500244141,0.5289999389648438,984.8950958251953
45530,-9.571396179199219,-8.34275115966797,4.330045623779297,984.8950958251953
45598,-9.266629943847656,-4.551884307861329,5.835465087890626,984.8950958251953
45665,-5.462590484619141,-5.911956024169922,2.827470245361328,984.8950958251953
45730,-2.911146240234375,-7.021897888183594,4.703818359375,984.8950958251953
45798,-2.870131530761719,-6.0306591796875,5.82229248046875,984.8950958251953
45865,-2.705324249267578,-6.6964746093750005,5.4619917297363285,984.8853302001953
45932,-1.9309844970703125,-6.173162841796875,5.994434509277344,984.8853302001953
45998,-0.6685098266601562,-5.65269515991211,5.637576599121094,984.8853302001953
46065,-1.7624349975585938,-4.805906066894532,7.0274363708496095,984.8853302001953
46131,-10.419682159423829,-11.504326629638673,8.738677825927734,984.8853302001953
46197,-2.4721092224121093,-8.218210144042969,4.7081593322753905,984.8853302001953
46264,-8.634494476318359,-9.845775604248047,4.1077578735351565,984.8853302001953
46330,-6.77116928100586,-5.352269897460938,2.8325596618652344,984.8853302001953
46398,-5.203928375244141,-5.410498809814453,3.059487762451172,984.8853302001953
46465,-4.925806732177735,-4.207600250244141,2.3740631103515626,984.8853302001953
46530,-6.0465261840820315,-4.5409570312500005,2.8422894287109375,984.8853302001953
46598,-10.017318878173828,-7.514523468017578,4.035308532714844,984.8853302001953
46665,-8.525521087646485,-5.775739288330079,3.1632220458984377,984.8853302001953
46731,-5.336702270507812,-3.7782929992675784,1.3210029602050781,984.8853302001953
46798,-7.181615753173828,-6.098917236328125,2.625689849853516,984.8762512207031
46865,-7.322772216796875,-6.748715972900391,2.5497976684570314,984.8762512207031
46930,-7.416926422119141,-7.339088287353516,2.8997698974609376,984.8762512207031
46998,-6.39275619506836,-6.258186035156251,3.113675079345703,984.8762512207031
47065,-6.37314697265625,-6.092031555175781,2.6455984497070313,984.8762512207031
47132,-6.757397918701172,-5.853577423095704,2.185455322265625,984.8762512207031
47198,-7.8656932067871095,-6.6312103271484375,2.4245082092285157,984.8762512207031
47265,-8.460256805419922,-7.1136570739746094,2.694097595214844,984.8762512207031
47330,-9.126072235107422,-7.807314605712891,3.1579829406738282,984.8762512207031
47398,-11.719728698730469,-10.023905181884766,3.996090087890625,984.8762512207031
47465,-7.1931417846679695,-6.894961853027344,0.26300308227539065,984.8762512207031
47531,-4.301604766845704,-4.558171234130859,1.0042616271972657,984.8762512207031
47598,-4.915328521728516,-6.2439656066894536,0.9126521301269531,984.8762512207031
47665,-2.6009912109375,-5.119803314208984,-0.7855664062500001,984.8762512207031
47730,-3.8112245178222657,-4.510570220947266,0.2832110595703125,984.8762512207031
47798,-9.284742279052734,-9.835746459960937,1.2217593383789063,984.8628234863281
47865,-8.55306381225586,-7.38908432006836,4.813091125488281,984.8628234863281
47932,-5.777984619140625,-5.4970188903808594,3.3691937255859377,984.8628234863281
47997,-6.424340515136719,-6.836433563232422,3.3961376953125,984.8628234863281
48065,-6.534062347412109,-7.542664947509766,4.457879791259765,984.8628234863281
48130,-4.46237045288086,-6.317313079833984,5.394482116699219,984.8628234863281
48198,-2.288441162109375,-6.520590362548829,4.909939727783203,984.8628234863281
48265,-3.0250593566894532,-6.720873870849609,5.790857849121094,984.8628234863281
48332,-1.9929556274414064,-6.535708923339844,5.866750030517578,984.8628234863281
48398,-1.2205618286132813,-6.201004943847656,6.091133422851563,984.8628234863281
48465,-0.8988807678222657,-5.992937622070313,5.663323059082032,984.8628234863281
48530,-1.1993060302734375,-5.711073760986328,6.269412689208985,984.8628234863281
48598,-11.069630584716798,-16.51889877319336,12.175680541992188,984.8628234863281
48665,-2.5830285644531252,-8.113577728271485,6.134543151855469,984.8628234863281
48730,-8.15354461669922,-7.4958123779296875,2.152673492431641,984.8447418212891
48798,-7.47530502319336,-5.702990570068359,4.712949371337891,984.8447418212891
48865,-3.592379608154297,-3.6229161071777347,0.10163864135742189,984.8447418212891
48930,-3.754043426513672,-5.210364990234376,0.7932005310058594,984.8447418212891
48998,-8.675808563232422,-8.47447723388672,3.353775787353516,984.8447418212891
49065,-9.360335083007813,-6.67297348022461,3.5051110839843753,984.8447418212891
49131,-6.455775146484375,-5.409001922607422,1.4599140930175782,984.8447418212891
49198,-6.655160522460938,-4.5092230224609375,1.9372714233398438,984.8447418212891
49265,-8.097710723876954,-4.6032275390625,2.309547271728516,984.8447418212891
49331,-8.808582458496094,-6.077062683105469,2.7963349914550784,984.8447418212891
49398,-6.833589477539062,-5.900579681396485,2.6120681762695312,984.8447418212891
49465,-6.262227630615235,-6.817722473144531,2.7997778320312503,984.8447418212891
49530,-7.185208282470703,-6.086792449951172,2.387684783935547,984.8447418212891
49598,-7.351063385009766,-5.2859577941894536,1.8244061279296875,984.8447418212891
49665,-7.020101623535156,-4.876708831787109,1.6813037109375002,984.8233032226562
49732,-8.610244903564453,-6.055657196044923,2.6970913696289065,984.8233032226562
49798,-10.620564422607423,-8.778345336914063,3.2730935668945316,984.8233032226562
49865,-12.405602416992188,-11.285481719970704,2.416425018310547,984.8233032226562
49935,-8.906927947998048,-8.642577667236328,-0.6420149230957032,984.8233032226562
49998,-3.6720140075683596,-4.388723602294922,-1.3204042053222658,984.8233032226562
50065,-2.9256660461425783,-4.520299987792969,0.31150222778320313,984.8233032226562
50130,-2.339485015869141,-3.886817321777344,-0.7373666381835938,984.8233032226562
50198,-4.394561462402344,-5.096751251220703,1.1106903076171875,984.8233032226562
50265,-10.787467346191407,-9.339378662109375,0.7083270263671876,984.8233032226562
50331,-7.1861064147949225,-6.936126251220704,0.8949888610839845,984.8233032226562
50398,-4.889432373046875,-4.9213160705566406,1.5970289611816406,984.8233032226562
50465,-7.72393798828125,-6.89092025756836,2.2935305786132814,984.8233032226562
50530,-8.904532928466796,-5.847140808105469,3.510050811767578,984.8233032226562
50598,-5.450615386962891,-6.0881396484375,1.9380198669433595,984.7995758056641
50665,-5.251679077148438,-6.615642700195313,2.411634979248047,984.7995758056641
50730,-6.34485580444336,-5.7471487426757815,2.850971374511719,984.7995758056641
50798,-7.669600982666016,-6.731801147460938,3.862567749023438,984.7995758056641
50865,-7.620203704833985,-6.0019189453125,4.757855987548829,984.7995758056641
50931,-7.549251251220704,-8.51564163208008,1.6329542541503907,984.7995758056641
50998,-9.99007553100586,-10.384205932617188,2.232906646728516,984.7995758056641
51064,-4.865332489013672,-3.937262420654297,1.6287629699707031,984.7995758056641
51131,-5.797444152832032,-4.86907470703125,0.6649172973632813,984.7995758056641
51198,-10.627450103759767,-7.5064402770996095,1.9969972229003907,984.7995758056641
51265,-7.87766830444336,-6.64902328491211,1.8363812255859375,984.7995758056641
51332,-5.493126983642578,-4.740791473388672,1.3695021057128907,984.7995758056641
51398,-7.275171203613281,-6.341113586425782,2.068997497558594,984.7995758056641
51465,-7.289092254638672,-6.216422882080079,1.093326416015625,984.7995758056641
51530,-7.319029998779297,-6.487808532714844,1.9125727844238283,984.7753143310547
51598,-6.843169555664063,-6.030060424804688,2.2939796447753906,984.7753143310547
51665,-9.119934997558595,-5.244943084716797,7.121889953613282,984.7753143310547
51730,-10.213560791015626,-7.081473999023438,2.133663024902344,984.7753143310547
51798,-7.367978210449219,-6.446644134521485,0.6277944946289062,984.7753143310547
51865,-4.753515014648438,-4.966072998046875,-0.8234376525878907,984.7753143310547
51931,-8.848399658203125,-6.941964111328125,0.9410929870605469,984.7753143310547
51998,-6.675069122314453,-6.937174072265625,0.33185989379882813,984.7753143310547
52064,-5.043312377929688,-5.542524261474609,1.144519958496094,984.7753143310547
52131,-6.518345031738281,-7.393125915527344,2.646346893310547,984.7753143310547
52198,-6.172564086914063,-5.633834381103516,1.5190411376953126,984.7753143310547
52265,-6.6436344909667975,-6.024222564697266,5.144651641845703,984.7753143310547
52330,-8.347690887451172,-7.092401275634766,4.428540802001954,984.7753143310547
52398,-7.415130157470704,-6.32045654296875,3.2183074951171875,984.7753143310547
52465,-9.82392105102539,-9.506730651855468,0.7520361328125,984.7753143310547
52530,-5.316943359375,-5.282514953613282,1.4852114868164064,984.7575378417969
52598,-5.2031799316406255,-4.312831420898438,1.0017169189453126,984.7575378417969
52665,-10.051447906494142,-7.594008178710938,2.0157083129882816,984.7575378417969
52730,-7.653434600830079,-6.047124938964844,1.5623011779785156,984.7575378417969
52798,-5.651048583984375,-4.439019012451172,1.169967041015625,984.7575378417969
52865,-7.3128927612304695,-5.373376007080078,2.115999755859375,984.7575378417969
52932,-7.946076049804688,-6.286477203369141,1.5943345642089846,984.7575378417969
52998,-5.008584594726563,-8.537047119140626,1.8887722778320313,984.7575378417969
53065,-8.847501525878906,-5.059927825927734,7.791746978759766,984.7575378417969
53130,-10.882819061279298,-7.295828247070313,2.4602838134765626,984.7575378417969
53198,-7.4519535827636725,-6.29695541381836,0.9497749328613282,984.7575378417969
53265,-4.049678649902344,-4.494403839111328,-1.0641371154785157,984.7575378417969
53330,-8.06208480834961,-7.290439453125001,0.8520281982421876,984.7575378417969
53398,-7.5453593444824225,-7.153773651123047,0.23561004638671876,984.7575378417969
53465,-5.121300201416016,-4.5988865661621094,1.37713623046875,984.747314453125
53531,-6.419400787353516,-6.714287567138673,2.0348684692382815,984.747314453125
53597,-6.713988189697266,-6.406078491210938,1.677561492919922,984.747314453125
53665,-6.598578186035157,-5.732628936767578,11.464659118652344,984.747314453125
53732,-7.30720458984375,-5.914800109863282,4.9247589111328125,984.747314453125
53798,-7.514822845458985,-7.233108673095703,-0.092208251953125,984.747314453125
53865,-7.4362362670898445,-8.223898315429688,2.2014720153808596,984.747314453125
53931,-6.613996124267579,-5.636079711914062,-0.32048355102539067,984.747314453125
53998,-10.581046600341798,-6.708300018310547,1.1645782470703125,984.747314453125
54065,-5.606740722656251,-4.715344390869141,2.118245086669922,984.747314453125
54130,-5.8677978515625,-4.8235693359375,1.4558724975585937,984.747314453125
54198,-8.359366607666017,-6.612199859619141,1.3811778259277345,984.747314453125
54265,-6.924300842285157,-8.133486328125,3.3977842712402344,984.747314453125
54331,-7.077133026123048,-5.910309448242188,3.1897169494628907,984.747314453125
54398,-9.902507629394531,-6.2773461914062505,3.423381042480469,984.7393798828125
54465,-9.247918853759765,-6.117478637695313,2.079775085449219,984.7393798828125
54530,-5.630541229248047,-4.877008209228516,0.6230044555664063,984.7393798828125
54598,-7.798482971191406,-7.826774139404297,0.014220428466796876,984.7393798828125
54665,-7.351063385009766,-7.560328216552735,0.5984555053710938,984.7393798828125
54730,-5.767356719970703,-5.85582275390625,2.0041822814941406,984.7393798828125
54798,-4.543950805664062,-6.257886657714844,1.4888040161132814,984.7393798828125
54865,-4.046684875488282,-5.331463165283203,3.3016841125488283,984.7393798828125
54935,-10.422825622558594,-10.437644805908203,7.850125579833985,984.7393798828125
54998,-4.915478210449219,-6.250102844238282,5.314698028564454,984.7393798828125
55065,-10.208171997070313,-9.0100634765625,-1.6423846435546876,984.7393798828125
55132,-4.118086395263672,-4.97924560546875,1.3522879028320314,984.7393798828125
55198,-7.912096710205079,-6.060297546386719,0.8020321655273438,984.7393798828125
55265,-9.459129638671875,-6.5642994689941405,2.072739715576172,984.7393798828125
55330,-4.798122253417969,-4.239334259033203,1.0966195678710937,984.7384643554688
55398,-6.755152587890626,-5.4461247253417975,2.063159637451172,984.7384643554688
55465,-8.480614471435548,-6.548133087158203,1.5820600891113281,984.7384643554688
55531,-6.045628051757813,-7.074438629150391,1.673968963623047,984.7384643554688
55598,-11.012898559570313,-5.322631530761719,8.286168823242187,984.7384643554688
55665,-9.661209411621094,-7.147636413574219,0.6740483093261719,984.7384643554688
55730,-5.787564697265625,-5.598956909179687,-0.6649172973632813,984.7384643554688
55798,-7.215744781494141,-8.290210418701172,-2.4303460693359376,984.7384643554688
55865,-6.774163055419923,-7.2846015930175785,0.5191204833984375,984.7384643554688
55931,-4.433031463623047,-6.026767272949219,-1.02746337890625,984.7384643554688
55998,-5.108277282714844,-5.8740847778320315,1.4121633911132814,984.7384643554688
56065,-6.371500396728516,-6.492299194335938,2.5626708984375,984.7384643554688
56130,-9.79997085571289,-9.205107879638673,8.494834899902344,984.7384643554688
56198,-6.578819274902344,-5.2946397399902345,5.383255462646485,984.7384643554688
56265,-10.235565032958984,-10.390193481445314,-2.130220184326172,984.7384643554688
56330,-4.622687072753907,-5.188809814453125,0.9810598754882813,984.7384643554688
56398,-6.296805725097657,-5.694907379150391,0.1215472412109375,984.7384643554688
56465,-9.644144897460938,-6.644382934570313,0.7976911926269532,984.7384643554688
56530,-4.6095144653320315,-4.400249633789063,1.3582754516601563,984.7384643554688
56598,-6.600524139404297,-5.1413584899902345,2.0122654724121096,984.7384643554688
56665,-7.892786865234376,-6.0834992980957034,1.6709751892089844,984.7384643554688
56731,-8.22883804321289,-6.683900756835937,-0.1836680603027344,984.7384643554688
56798,-11.043734436035157,-6.223607940673828,10.999725952148438,984.7384643554688
56864,-9.889784088134766,-8.196056213378906,0.6015989685058594,984.7384643554688
56931,-5.262157287597656,-5.51093994140625,-0.17453704833984376,984.7384643554688
56998,-4.844974822998047,-6.197113037109375,-1.2838801574707033,984.7384643554688
57065,-8.532257080078125,-8.97458724975586,2.668650512695313,984.7384643554688
57130,-4.660408630371094,-5.054988098144531,-0.49651748657226563,984.7384643554688
57198,-5.955365753173829,-5.436993713378906,3.0298493957519534,984.7384643554688
57265,-6.020330657958985,-6.420747985839844,2.406695251464844,984.7392272949219
57331,-9.548044738769532,-6.6102539062500005,10.229427795410157,984.7392272949219
57398,-4.765490112304688,-6.566395111083985,7.390132141113281,984.7392272949219
57465,-7.879314880371094,-8.89794662475586,-0.9589059448242188,984.7392272949219
57531,-6.078110504150391,-6.229146423339844,2.47884521484375,984.7392272949219
57598,-8.43136688232422,-6.223009185791016,-0.28500732421875,984.7392272949219
57665,-6.199957122802735,-5.182672576904297,0.11930191040039063,984.7392272949219
57730,-5.0901649475097654,-4.549040222167969,2.117047576904297,984.7392272949219
57798,-7.429350585937501,-5.5254597473144536,1.8480569458007814,984.7392272949219
57865,-8.400830383300782,-6.165528717041016,2.346819763183594,984.7392272949219
57931,-10.611433410644532,-5.433850250244141,4.532574462890625,984.7392272949219
57998,-9.818831634521485,-6.810687103271484,0.5743556213378906,984.7392272949219
58065,-7.770042114257813,-6.559359741210938,0.6873706054687501,984.7392272949219
58131,-5.919440460205078,-6.583908691406251,-1.2319381713867188,984.7392272949219
58197,-7.6808276367187505,-7.8921881103515625,1.13763427734375,984.7399139404297
58265,-4.719385986328125,-5.1220486450195315,0.2785707092285156,984.7399139404297
58330,-4.176464996337891,-5.283562774658203,-0.784368896484375,984.7399139404297
58398,-6.52642822265625,-5.251230010986329,2.114652557373047,984.7399139404297
58465,-6.569388885498047,-5.8721388244628905,6.269412689208985,984.7399139404297
58531,-11.308833160400392,-9.263935546875,6.791377258300781,984.7399139404297
58598,-7.090754699707031,-10.445727996826172,2.5798851013183595,984.7399139404297
58665,-7.714657287597657,-7.645950164794923,0.4758604431152344,984.7399139404297
58730,-4.662953338623047,-4.043092346191407,0.7117698669433594,984.7399139404297
58798,-10.23676254272461,-7.549400939941407,0.05044509887695313,984.7399139404297
58865,-7.026538238525391,-5.9760227966308594,2.4638763427734376,984.7399139404297
58932,-5.347180480957031,-4.354744262695313,1.6696279907226563,984.7399139404297
58998,-7.324269104003907,-5.2417996215820315,1.9809805297851564,984.7399139404297
59065,-6.272107086181641,-7.321874084472657,1.7067507934570314,984.7399139404297
59130,-8.822503509521486,-7.267387390136719,1.8232086181640625,984.7408294677734
59198,-8.820557556152345,-7.711513824462891,2.013013916015625,984.7408294677734
59265,-8.1286962890625,-7.188202056884766,0.3998185729980469,984.7408294677734
59332,-4.163741455078125,-4.70905746459961,-1.0154882812500001,984.7408294677734
59398,-7.965385894775391,-8.435408477783204,1.173409881591797,984.7408294677734
59465,-5.978118438720704,-5.871839447021484,-0.07738906860351563,984.7408294677734
59531,-4.5725413513183595,-4.369114379882813,0.44457550048828126,984.7408294677734
59598,-6.147566070556641,-6.916367340087891,0.9970765686035157,984.7408294677734
59665,-6.032006378173828,-5.770949249267578,3.7416192626953126,984.7408294677734
59731,-7.684869232177735,-6.593638458251953,5.024002532958985,984.7408294677734
59798,-9.79128890991211,-6.984176330566407,9.947563934326173,984.7408294677734
59865,-6.730154571533204,-8.524922332763673,-3.417393493652344,984.7408294677734
59942,-7.064708862304688,-6.800957336425782,3.7568875122070313,984.7408294677734
59998,-5.316344604492188,-5.464087371826172,-0.4992118835449219,984.7408294677734
60065,-7.4342903137207035,-5.786965942382813,-0.05284011840820313,984.7408294677734
60131,-10.061177673339845,-7.275620269775391,2.203268280029297,984.7408294677734
60198,-6.77835433959961,-5.395679626464844,0.7122189331054688,984.7408294677734
60265,-6.672225036621094,-5.3422407531738285,2.0166064453125,984.7408294677734
60331,-7.644153900146485,-6.729555816650391,2.1606069946289064,984.7408294677734
60398,-6.861431579589844,-5.94683349609375,2.4815396118164066,984.7408294677734
60465,-7.464826812744141,-6.6294140625,2.326611785888672,984.7408294677734
60532,-7.036866760253907,-6.223907318115235,1.3596226501464845,984.7408294677734
60598,-7.080725555419923,-5.920039215087891,1.4150074768066407,984.7408294677734
60665,-7.03417236328125,-5.793851623535157,1.6039146423339845,984.7408294677734
60731,-6.906787261962891,-5.567821655273438,1.48730712890625,984.7408294677734
60798,-7.828420715332031,-6.039041748046875,1.8724562072753907,984.7408294677734
60865,-10.844349060058594,-10.312355346679688,2.6957441711425782,984.7408294677734
60931,-13.162428588867188,-11.998598785400391,3.1298414611816407,984.7408294677734
60998,-7.582482147216798,-7.572453002929688,-1.4498849487304688,984.7408294677734
61065,-3.2445030212402344,-4.0707847595214846,0.384400634765625,984.7386932373047
61131,-2.2218296813964846,-4.7012736511230475,-0.396375732421875,984.7386932373047
61198,-3.3560211181640627,-6.001469879150391,-0.9379495239257813,984.7386932373047
61265,-6.873406677246094,-7.0503387451171875,1.25738525390625,984.7386932373047
61330,-8.927285614013673,-8.352630615234375,-0.4110452270507813,984.7386932373047
61398,-5.754483489990235,-6.034850463867188,1.0990145874023438,984.7386932373047
61465,-5.306315460205078,-5.810167694091797,0.9595046997070313,984.7386932373047
61531,-8.311466217041016,-7.774981842041016,1.8739530944824219,984.7386932373047
61598,-6.3936543273925786,-6.26776611328125,0.9951306152343751,984.7386932373047
61665,-7.741301879882813,-7.8481796264648445,2.4542962646484376,984.7386932373047
61731,-6.911427612304688,-7.08491683959961,2.3677761840820315,984.7386932373047
61798,-6.959028625488282,-6.618486785888672,3.5666331481933597,984.7386932373047
61865,-5.145699462890625,-7.642357635498048,4.381388854980469,984.7386932373047
61931,-3.4314642333984375,-6.069129180908203,4.096082153320313,984.7386932373047
61998,-3.5681300354003906,-7.336094512939454,5.284460906982422,984.7365570068359
62065,-3.0061985778808595,-6.419550476074219,5.409750366210938,984.7365570068359
62131,-1.9395167541503908,-6.961573333740235,6.037544860839844,984.7365570068359
62198,-1.7868342590332031,-6.016438751220703,5.371579742431641,984.7365570068359
62265,-1.003363494873047,-5.354215850830078,5.991291046142578,984.7365570068359
62331,-4.665348358154297,-10.612032165527344,15.247891845703126,984.7365570068359
62398,-4.0020776367187505,-9.601034545898438,3.942351837158203,984.7365570068359
62465,-6.0414367675781255,-5.551505584716797,1.9989431762695313,984.7365570068359
62531,-6.305936737060547,-7.1718859863281255,3.73623046875,984.7365570068359
62598,-6.040838012695313,-5.02235595703125,2.0686981201171877,984.7365570068359
62665,-5.566624145507813,-4.483027496337891,2.0707937622070314,984.7365570068359
62731,-6.1293040466308595,-4.307891693115234,1.1689192199707032,984.7365570068359
62798,-9.685608673095704,-7.140002288818359,0.8276289367675782,984.7365570068359
62865,-8.497529296875001,-6.600224761962891,2.8683352661132813,984.7365570068359
62931,-6.4833178710937505,-5.708079986572266,0.9868977355957032,984.736328125
62998,-6.663243713378907,-6.085894317626954,1.5376025390625,984.736328125
63065,-6.663692779541016,-5.308860168457032,2.395318908691406,984.736328125
63131,-8.589887237548828,-7.898325347900391,2.4471112060546876,984.736328125
63198,-6.180048522949219,-4.884642333984376,1.9929556274414064,984.736328125
63264,-7.959248657226563,-7.2405931091308595,2.040107574462891,984.736328125
63332,-6.951993255615235,-5.815257110595703,2.132615203857422,984.736328125
63398,-7.153773651123047,-5.695206756591797,2.0312759399414064,984.736328125
63465,-7.360194396972656,-6.228697357177735,2.4743545532226565,984.736328125
63531,-7.4589889526367195,-6.107898559570313,2.4086412048339847,984.736328125
63598,-7.394772491455078,-5.843099212646485,2.289189605712891,984.736328125
63665,-7.4890763854980476,-5.786516876220704,1.8675164794921877,984.736328125
63731,-6.981332244873047,-5.323230285644532,1.5941848754882812,984.736328125
63798,-8.341703338623047,-6.710994415283204,1.6519647216796876,984.736328125
63865,-7.7652520751953125,-7.009473724365234,1.020128631591797,984.7290802001953
63931,-6.757098541259766,-6.101911010742188,2.791544952392578,984.7290802001953
63998,-11.103160858154297,-10.411449279785156,2.381846923828125,984.7290802001953
64065,-12.000245361328126,-9.8483203125,2.578388214111328,984.7290802001953
64131,-5.596861267089844,-5.1133666992187505,1.144669647216797,984.7290802001953
64197,-3.5685791015625004,-3.668870544433594,0.7610174560546875,984.7290802001953
64265,-3.6119888305664065,-4.618944854736329,-0.8985813903808594,984.7290802001953
64331,-5.379962310791016,-9.119336242675782,-0.5140310668945313,984.7290802001953
64398,-8.081843719482423,-7.528893585205078,1.3142669677734375,984.7290802001953
64465,-7.319628753662109,-6.780749359130859,1.8027012634277344,984.7290802001953
64531,-5.790857849121094,-5.51572998046875,1.2819342041015627,984.7290802001953
64598,-6.0272163391113285,-6.267915802001953,1.407223663330078,984.7290802001953
64665,-7.600744171142579,-7.246430969238282,2.4233106994628906,984.7290802001953
64732,-6.905889129638672,-6.667734375,1.452429656982422,984.7290802001953
64798,-6.71323974609375,-6.676266632080078,1.4013858032226563,984.7290802001953
64865,-7.050488433837891,-7.445217590332032,2.6144631958007816,984.7241973876953
64936,-7.567513275146485,-6.464307403564454,3.3673974609375,984.7241973876953
64998,-6.79272445678711,-6.95558578491211,3.3382081604003906,984.7241973876953
65065,-5.447172546386719,-7.253915405273438,4.782255249023438,984.7241973876953
65131,-3.171155548095703,-7.055428161621094,5.001698913574219,984.7241973876953
65198,-3.5256184387207035,-6.873406677246094,5.144352264404297,984.7241973876953
65265,-2.9955706787109375,-6.74242904663086,5.552852783203125,984.7241973876953
65330,-2.2339544677734375,-6.4569726562500005,5.901777191162109,984.7241973876953
65398,-1.5959811401367188,-6.04547836303711,5.400918731689454,984.7241973876953
65465,-2.1677920532226564,-6.160888366699219,6.61309799194336,984.7241973876953
65531,-7.5911640930175786,-15.304773559570313,11.897858276367188,984.7241973876953
65598,-6.162085876464844,-7.1807176208496095,5.885760498046875,984.7241973876953
65665,-5.551206207275391,-4.816983032226562,1.8309924316406252,984.7241973876953
65730,-6.466103668212891,-6.226002960205078,1.9950512695312501,984.7241973876953
65798,-4.598736877441406,-3.7414695739746096,2.064357147216797,984.7156524658203
65865,-5.8740847778320315,-4.929698638916016,2.041604461669922,984.7156524658203
65931,-8.982670440673829,-7.969128112792969,3.237916717529297,984.7156524658203
65998,-8.3969384765625,-6.586902465820313,2.144739990234375,984.7156524658203
66065,-5.082680511474609,-4.517306213378906,0.7343728637695313,984.7156524658203
66131,-6.7386868286132815,-5.830225982666016,2.4816893005371097,984.7156524658203
66198,-8.459957427978516,-6.964567108154297,2.2444326782226565,984.7156524658203
66265,-7.0748876953125,-5.964496765136719,2.586321716308594,984.7156524658203
66331,-7.518565063476563,-6.239025878906251,2.428699493408203,984.7156524658203
66398,-6.75919418334961,-5.838159484863281,2.2267694091796875,984.7156524658203
66465,-6.945107574462891,-6.5554678344726565,2.6108706665039065,984.7156524658203
66531,-7.119644622802735,-6.396947479248047,3.160078582763672,984.7156524658203
66598,-7.0415071105957034,-5.753585357666016,2.471510467529297,984.7156524658203
66665,-7.552245025634766,-6.285878448486328,2.489323425292969,984.7156524658203
66732,-7.493866424560547,-6.119125213623048,1.9854711914062502,984.7064971923828
66798,-7.253466339111329,-5.781726837158203,2.2598506164550782,984.7064971923828
66865,-6.797364807128907,-5.715863800048829,2.3944207763671876,984.7064971923828
66930,-6.744225311279298,-6.050418090820313,2.2079086303710938,984.7064971923828
66998,-7.684120788574219,-6.374793548583985,2.419119415283203,984.7064971923828
67065,-8.865164794921876,-7.309749298095704,2.4745042419433596,984.7064971923828
67131,-10.4470751953125,-9.7668896484375,3.407064971923828,984.7064971923828
67198,-12.633428649902344,-10.729537811279297,3.4480796813964845,984.7064971923828
67265,-5.408552856445313,-5.590873718261719,-0.40116577148437504,984.7064971923828
67331,-3.4256263732910157,-4.000431060791016,1.0755134582519532,984.7064971923828
67398,-2.685864715576172,-2.621648254394531,0.7457492065429688,984.7064971923828
67465,-2.4505540466308595,-6.211333465576172,-2.365081787109375,984.7064971923828
67531,-9.176068267822266,-9.894424438476562,1.4492861938476562,984.7064971923828
67598,-9.358987884521484,-7.750432891845704,2.1372555541992186,984.7064971923828
67665,-6.152655487060547,-4.875062255859375,2.668201446533203,984.6964263916016
67731,-5.420977020263672,-7.366930389404297,3.689527587890625,984.6964263916016
67798,-5.897136840820313,-6.3659619140625,1.885928192138672,984.6964263916016
67864,-8.356971588134765,-7.932454376220703,3.659290466308594,984.6964263916016
67931,-5.240452423095704,-7.5260494995117195,3.969744873046875,984.6964263916016
67998,-5.532195739746094,-7.305707702636719,4.92221420288086,984.6964263916016
68065,-4.0971299743652345,-7.293582916259766,5.195545806884766,984.6964263916016
68131,-1.5961308288574219,-6.216123504638672,5.518125,984.6964263916016
68197,-2.5909620666503907,-7.0470455932617195,5.881269836425782,984.6964263916016
68265,-1.4591656494140626,-6.221811676025391,5.666017456054687,984.6964263916016
68331,0.11421249389648438,-5.289849700927735,5.508245544433594,984.6964263916016
68398,-0.30177246093750004,-5.344635772705079,7.20945785522461,984.6964263916016
68465,-12.569810943603516,-14.71065902709961,10.388247528076173,984.6964263916016
68531,-2.926564178466797,-6.284680938720704,4.1721240234375,984.6964263916016
68598,-6.733747100830079,-6.940317535400391,3.3295262145996096,984.6964263916016
68665,-8.306227111816407,-7.150031433105469,4.213587799072266,984.6881866455078
68731,-4.978646850585938,-4.125720520019532,2.398761749267578,984.6881866455078
68798,-4.392016754150391,-3.5545083618164064,1.6119978332519531,984.6881866455078
68865,-8.009244689941406,-7.252268829345703,1.1822415161132813,984.6881866455078
68930,-9.340127105712892,-7.456743621826172,3.962709503173828,984.6881866455078
68998,-5.744154968261719,-5.213957519531251,1.7688716125488282,984.6881866455078
69065,-7.007228393554688,-6.296805725097657,2.0038829040527344,984.6881866455078
69132,-6.913972320556641,-5.549559631347656,2.08845703125,984.6881866455078
69198,-7.263645172119141,-6.037245483398438,2.475252685546875,984.6881866455078
69265,-7.661068725585938,-6.547833709716797,2.4539968872070315,984.6881866455078
69331,-6.856491851806641,-6.132746887207031,2.2659878540039062,984.6881866455078
69398,-6.812183990478516,-6.441554718017579,2.2144949340820315,984.6881866455078
69465,-6.372548217773438,-6.875053253173829,3.0850845336914063,984.6881866455078
69531,-6.981182556152344,-6.09098373413086,2.185455322265625,984.6881866455078
69598,-7.4589889526367195,-6.345454559326172,2.238894195556641,984.6792602539062
69665,-6.692582702636719,-5.370831298828126,1.6054115295410156,984.6792602539062
69731,-9.183852081298829,-8.168812866210938,2.1272264099121094,984.6792602539062
69798,-5.898633728027344,-5.97078369140625,2.0210971069335937,984.6792602539062
69865,-6.376290435791016,-4.846621398925781,2.4780967712402346,984.6792602539062
69931,-8.67520980834961,-5.813610534667969,2.6252407836914062,984.6792602539062
69998,-9.210646362304688,-7.369624786376954,2.197280731201172,984.6792602539062
70065,-11.312425689697266,-9.980046386718751,0.012873229980468751,984.6792602539062
70131,-8.817563781738281,-10.570568389892578,-0.7990383911132813,984.6792602539062
70198,-2.624492340087891,-4.929548950195313,0.9148974609375,984.6792602539062
70264,-5.857768707275391,-6.684798889160157,-0.07559280395507813,984.6792602539062
70331,-4.869972839355469,-6.6436344909667975,-0.5457650756835938,984.6792602539062
70397,-5.081632690429688,-5.8019348144531255,-0.35206787109375004,984.6792602539062
70464,-7.289241943359375,-8.459059295654297,-0.5046006774902344,984.6792602539062
70531,-6.250252532958985,-7.8317138671875,-0.30027557373046876,984.6653747558594
70598,-5.9938357543945315,-6.820566558837891,1.2624746704101564,984.6653747558594
70665,-5.8492364501953125,-6.43541748046875,0.8422984313964844,984.6653747558594
70730,-6.698270874023438,-7.381150817871094,1.5465838623046875,984.6653747558594
70798,-7.618856506347656,-7.529791717529298,3.036585388183594,984.6653747558594
70865,-6.969656524658204,-7.419171752929688,3.1052925109863283,984.6653747558594
70931,-4.154460754394531,-7.945626983642579,3.582649841308594,984.6653747558594
70998,-3.481011199951172,-6.0254200744628905,4.772824859619141,984.6653747558594
71065,-3.4919384765625003,-7.64774642944336,5.122647399902344,984.6653747558594
71131,-2.971171417236328,-7.586673431396485,5.019362182617188,984.6653747558594
71198,-2.232457580566406,-6.856042785644531,5.080884246826172,984.6653747558594
71265,-0.1898052978515625,-6.081403656005859,4.6095144653320315,984.6653747558594
71331,-0.4017645263671875,-5.561534729003906,5.622158660888672,984.6653747558594
71398,-1.9128721618652345,-10.239606628417969,15.058385925292969,984.6653747558594
71465,-9.339827728271485,-9.411378936767578,5.941594390869141,984.6538543701172
71531,-3.8321809387207035,-5.137167205810547,1.4254856872558594,984.6538543701172
71598,-8.609496459960939,-8.585396575927735,2.8568092346191407,984.6538543701172
71665,-6.1840901184082036,-5.144801330566406,2.515968017578125,984.6538543701172
71731,-3.767066345214844,-2.6758355712890625,1.3569282531738283,984.6538543701172
71798,-6.965465240478516,-5.691913604736328,1.8146763610839844,984.6538543701172
71865,-9.912985839843751,-8.271499328613281,3.3795222473144535,984.6538543701172
71931,-6.114185485839844,-5.026397552490234,1.9426602172851564,984.6538543701172
71998,-6.754853210449219,-5.698050842285157,2.538271636962891,984.6538543701172
72065,-7.013365631103516,-6.099665679931641,2.2969734191894533,984.6538543701172
72131,-6.948550415039063,-6.293961639404297,2.527643737792969,984.6538543701172
72198,-6.485712890625,-6.4640080261230475,2.3540048217773437,984.6538543701172
72264,-6.478378143310548,-6.596781921386719,3.095413055419922,984.6538543701172
72331,-7.024891662597657,-6.020480346679688,2.926564178466797,984.6538543701172
72398,-7.300169219970703,-6.144871673583984,2.801125030517578,984.6465301513672
72465,-8.376730499267579,-6.642586669921875,3.6345918273925784,984.6465301513672
72531,-9.614356842041015,-7.774532775878907,3.5250196838378907,984.6465301513672
72598,-7.115153961181641,-6.674320678710938,1.9660116577148439,984.6465301513672
72665,-4.374054107666016,-4.452041931152344,0.39472915649414064,984.6465301513672
72731,-6.832391967773438,-7.159910888671876,1.6902850341796876,984.6465301513672
72798,-8.467591552734376,-8.466693420410156,2.032473449707031,984.6465301513672
72865,-4.705614624023438,-5.695057067871094,2.0670515441894532,984.6465301513672
72931,-5.179379425048828,-6.799610137939453,0.9500743103027344,984.6465301513672
72998,-6.325096893310548,-5.9303677368164065,2.9163853454589845,984.6465301513672
73065,-7.134314117431641,-5.069657592773438,3.376528472900391,984.6465301513672
73131,-7.503296813964844,-4.355343017578125,5.199437713623047,984.6465301513672
73198,-7.0802764892578125,-8.437354431152345,8.273744659423828,984.6465301513672
73265,-5.125192108154297,-5.990841979980469,1.8309924316406252,984.6465301513672
73331,-10.336604919433594,-10.66068099975586,3.137325897216797,984.6465301513672
73398,-3.89954086303711,-3.782933349609375,0.9762698364257812,984.6311187744141
73465,-6.145620117187501,-5.496719512939453,1.967358856201172,984.6311187744141
73531,-10.83791244506836,-7.352111206054688,2.837798767089844,984.6311187744141
73598,-6.389463043212891,-5.342540130615235,2.815046081542969,984.6311187744141
73665,-5.751489715576172,-4.5268862915039065,2.069596252441406,984.6311187744141
73730,-7.492668914794923,-5.984854431152344,2.6276358032226566,984.6311187744141
73798,-7.403903503417969,-6.741680603027344,2.56506591796875,984.6311187744141
73865,-6.636748809814454,-7.549850006103516,4.885690155029297,984.6311187744141
73931,-9.813742218017579,-7.2263726806640625,3.3847613525390625,984.6311187744141
73998,-9.2351953125,-7.141499176025391,2.588567047119141,984.6311187744141
74065,-4.107159118652344,-4.124523010253906,0.06975494384765625,984.6311187744141
74131,-5.256469116210938,-6.080505523681641,0.020507354736328125,984.6311187744141
74198,-10.447823638916017,-10.891201629638672,2.7556196594238282,984.6311187744141
74265,-4.692142639160156,-5.550607452392579,0.5429209899902344,984.6311187744141
74331,-5.295088806152344,-5.946534118652344,2.150428161621094,984.6228790283203
74398,-4.612657928466797,-5.655389556884766,1.5245796203613282,984.6228790283203
74465,-6.44978759765625,-6.120771789550782,5.882317657470703,984.6228790283203
74531,-9.229656829833985,-6.996600494384766,7.346722412109376,984.6228790283203
74598,-6.112987976074219,-4.12946273803711,5.821094970703125,984.6228790283203
74665,-10.949131164550781,-11.053314514160157,0.65863037109375,984.6228790283203
74731,-3.5916311645507815,-3.973038024902344,0.6339317321777344,984.6228790283203
74798,-7.223528594970704,-5.518873443603516,0.8184979248046875,984.6228790283203
74865,-11.448941802978517,-8.100105743408204,2.401755523681641,984.6228790283203
74934,-5.355263671875,-4.696184234619141,1.4630575561523438,984.6228790283203
74998,-5.6643708801269534,-4.813390502929688,1.8119819641113282,984.6228790283203
75065,-7.858508148193359,-6.119125213623048,1.8354830932617188,984.6228790283203
75131,-5.555098114013672,-7.979306945800782,1.6732205200195314,984.6228790283203
75198,-9.112151184082032,-6.8674191284179695,4.409530334472657,984.6228790283203
75265,-10.467432861328126,-5.903124389648438,3.3772769165039063,984.622802734375
75331,-8.032745819091797,-6.724915466308594,1.0436297607421876,984.622802734375
75398,-5.129533081054688,-5.830375671386719,-0.8893006896972657,984.622802734375
75465,-7.857160949707032,-8.324638824462891,2.348915405273438,984.622802734375
75531,-6.587501220703126,-5.5675222778320315,1.1038046264648438,984.622802734375
75598,-5.619464263916016,-5.96120361328125,0.5563929748535157,984.622802734375
75665,-4.081412658691407,-5.2982322692871096,1.0288105773925782,984.622802734375
75731,-5.0409173583984375,-5.455555114746094,5.260959777832031,984.622802734375
75798,-11.238778839111328,-7.9415853881835945,6.3777873229980475,984.622802734375
75865,-4.5867617797851565,-6.276747436523438,6.6153433227539065,984.622802734375
75931,-9.550439758300781,-8.355325012207032,-1.8055453491210938,984.622802734375
75998,-4.897066497802735,-5.774092712402344,1.5688874816894531,984.622802734375
76065,-5.8863592529296875,-4.514312438964844,0.4746629333496094,984.622802734375
76131,-11.126212921142578,-8.591084747314454,2.8232789611816407,984.622802734375
76198,-6.4622117614746095,-4.923262023925782,1.9209553527832033,984.6212005615234
76265,-5.0481024169921875,-4.1242236328125,1.4485377502441408,984.6212005615234
76330,-7.279811553955079,-6.976093139648438,2.9264144897460938,984.6212005615234
76398,-6.026767272949219,-6.859186248779297,3.606749725341797,984.6212005615234
76465,-9.009614410400392,-7.356452178955078,3.0961614990234376,984.6212005615234
76531,-9.536369018554687,-7.835156707763672,3.156785430908203,984.6212005615234
76598,-5.7893609619140625,-5.392087097167969,0.08427474975585938,984.6212005615234
76665,-6.034551086425782,-6.821165313720703,0.4197271728515625,984.6212005615234
76730,-8.102051696777345,-7.520211639404297,1.7658778381347657,984.6212005615234
76798,-5.621410217285156,-6.2685145568847656,0.19714004516601563,984.6212005615234
76865,-4.320315856933594,-6.4726899719238284,1.3671070861816408,984.6212005615234
76931,-5.489534454345703,-5.97123275756836,2.532284088134766,984.6212005615234
76998,-7.2335577392578125,-6.336024169921875,8.982670440673829,984.6212005615234
77065,-6.708599395751953,-7.509284362792969,6.6189358520507815,984.6212005615234
77131,-6.0906843566894535,-6.927593994140626,-0.5655239868164063,984.6212005615234
77198,-8.516090698242188,-8.615783386230468,4.34696044921875,984.6166229248047
77265,-4.939727783203125,-3.5723213195800785,0.5397775268554688,984.6166229248047
77330,-9.991572418212892,-7.440427551269532,1.2678634643554687,984.6166229248047
77398,-6.903643798828125,-6.2385768127441406,2.6065296936035156,984.6166229248047
77465,-4.475992126464844,-4.148024139404297,1.3398637390136718,984.6166229248047
77531,-7.158114624023438,-5.744903411865234,2.3581961059570316,984.6166229248047
77598,-6.102809143066406,-6.604116668701172,1.4527290344238282,984.6166229248047
77665,-9.393116912841798,-6.994355163574219,5.809419250488282,984.6166229248047
77730,-9.033265228271485,-8.711584167480469,3.5482214355468753,984.6166229248047
77798,-6.918762359619141,-6.373446350097656,0.6014492797851563,984.6166229248047
77865,-5.188809814453125,-5.49941390991211,0.6908134460449219,984.6166229248047
77931,-8.774303741455078,-8.226143646240235,1.7741107177734377,984.6166229248047
77998,-6.583459625244141,-5.583538970947266,0.29458740234375,984.6166229248047
78064,-5.2682945251464846,-5.263354797363282,0.6541397094726563,984.6166229248047
78131,-6.249504089355469,-5.923032989501953,2.6958938598632813,984.6147918701172
78198,-6.1258612060546875,-6.668333129882813,4.483027496337891,984.6147918701172
78265,-8.75514358520508,-7.728877716064454,6.5325654602050784,984.6147918701172
78330,-6.760242004394532,-5.552403717041016,6.658154296875001,984.6147918701172
78398,-9.441466369628907,-9.283395080566407,2.9295579528808595,984.6147918701172
78465,-4.413571929931641,-4.680915985107422,-0.8195457458496094,984.6147918701172
78531,-8.170459442138672,-7.024741973876954,0.31644195556640625,984.6147918701172
78598,-8.01223846435547,-6.873855743408203,2.409239959716797,984.6147918701172
78665,-5.141807556152344,-4.844226379394532,1.279090118408203,984.6147918701172
78731,-6.234535217285156,-5.308560791015625,1.657353515625,984.6147918701172
78798,-6.992109832763672,-7.242089996337891,1.7765057373046875,984.6147918701172
78865,-7.510182495117188,-7.663014678955078,5.56842041015625,984.6147918701172
78932,-8.183632049560547,-6.897805938720704,0.9201365661621094,984.6147918701172
78998,-9.43443099975586,-7.579937438964844,2.0134629821777343,984.6147918701172
79065,-8.600814514160156,-7.674690399169922,0.918489990234375,984.6078491210938
79131,-4.022135925292969,-4.25639877319336,-1.229543151855469,984.6078491210938
79198,-5.511688385009766,-6.541097717285156,-0.8222401428222657,984.6078491210938
79265,-8.835376739501953,-11.17082015991211,3.09676025390625,984.6078491210938
79331,-6.039640502929688,-5.730982360839844,1.9700532531738282,984.6078491210938
79398,-6.028114471435547,-6.515950012207032,3.133433990478516,984.6078491210938
79465,-3.8981936645507815,-6.755901031494141,4.9511041259765625,984.6078491210938
79532,-1.929038543701172,-6.655459899902344,4.0778201293945315,984.6078491210938
79598,-1.697919158935547,-5.962700500488282,5.40840316772461,984.6078491210938
79665,-1.598675537109375,-6.060596923828125,6.575226745605469,984.6078491210938
79730,-1.8576370239257813,-5.101990356445313,6.117778015136719,984.6078491210938
79798,-15.382911071777345,-16.013849029541017,5.726641387939454,984.6078491210938
79865,-3.164718933105469,-5.102140045166016,1.8886225891113282,984.6078491210938
79935,-7.680228881835938,-7.891140289306641,2.5414151000976566,984.6078491210938
79997,-6.343957672119141,-6.570287017822266,2.438279571533203,984.6027374267578
80065,-5.516628112792969,-4.601730651855469,2.728825378417969,984.6027374267578
80131,-5.943540344238282,-4.293970642089844,2.774480438232422,984.6027374267578
80198,-6.993307342529297,-5.9832078552246095,1.4033317565917969,984.6027374267578
80265,-9.25196044921875,-6.97190185546875,3.134930877685547,984.6027374267578
80330,-6.827302551269532,-5.690716094970703,1.7953665161132812,984.6027374267578
80398,-5.283712463378906,-4.487967224121094,1.3368699645996094,984.6027374267578
80465,-7.722590789794922,-7.00064208984375,1.813179473876953,984.6027374267578
80531,-8.157735900878906,-6.8478099060058595,3.1094837951660157,984.6027374267578
80598,-6.942712554931641,-6.184688873291016,2.558030548095703,984.6027374267578
80665,-6.556665344238281,-5.813760223388672,2.288740539550781,984.6027374267578
80731,-7.473209381103516,-5.895789642333985,1.9905606079101563,984.6027374267578
80798,-7.530540161132813,-6.326294403076172,3.6351905822753907,984.6027374267578
80865,-7.138954467773438,-6.052214355468751,2.3320005798339847,984.6027374267578
80931,-6.520290985107422,-5.887107696533203,1.1085946655273438,984.595947265625
80998,-6.445895690917969,-5.719905395507813,1.7501605224609376,984.595947265625
81065,-7.582781524658204,-7.022945709228516,2.2138961791992187,984.595947265625
81131,-9.873318328857422,-9.10721145629883,3.4934353637695312,984.595947265625
81198,-12.478051757812501,-11.343111877441407,3.3582664489746095,984.595947265625
81265,-7.733218688964844,-7.049739990234375,0.8605604553222657,984.595947265625
81331,-3.975882110595703,-4.099674682617188,0.572259979248047,984.595947265625
81398,-2.9892837524414064,-3.7736526489257813,1.221310272216797,984.595947265625
81465,-3.2706985473632812,-4.631668395996094,0.15881973266601562,984.595947265625
81531,-7.489226074218751,-9.843081207275391,0.058528289794921876,984.595947265625
81598,-9.70596633911133,-9.51346664428711,1.742227020263672,984.595947265625
81665,-7.114255828857422,-6.269861755371094,2.633174285888672,984.595947265625
81731,-6.20594467163086,-4.954996032714844,1.6429833984375002,984.595947265625
81798,-6.598129119873048,-6.631809082031251,4.339775390625,984.595947265625
81864,-6.329288177490235,-7.167994079589844,3.5534605407714848,984.595947265625
81934,-6.804549865722657,-7.518565063476563,6.102659454345703,984.5884704589844
81998,-2.365081787109375,-6.706354064941406,5.52575912475586,984.5884704589844
82065,-2.223476257324219,-6.389912109375,5.463937683105469,984.5884704589844
82131,-2.4736061096191406,-6.272406463623047,5.6766453552246094,984.5884704589844
82198,-1.0141410827636719,-6.524033203125001,5.61437484741211,984.5884704589844
82265,-1.0280621337890625,-5.772296447753907,6.04068832397461,984.5884704589844
82331,-0.2664459228515625,-5.501659240722656,5.277275848388673,984.5884704589844
82398,-2.4243585205078126,-9.196126556396484,15.24759246826172,984.5884704589844
82465,-8.812923431396484,-9.80236587524414,-0.7442523193359375,984.5884704589844
82531,-3.557352447509766,-6.659950561523438,3.0865814208984377,984.5884704589844
82598,-7.9275146484375005,-7.560926971435547,4.053420867919922,984.5884704589844
82665,-6.426136779785157,-6.059698791503907,2.658621368408203,984.5884704589844
82731,-5.845045166015625,-5.456004180908203,2.803220672607422,984.5884704589844
82798,-4.025878143310547,-2.850821685791016,1.7808467102050782,984.5884704589844
82865,-7.03417236328125,-5.912105712890625,0.8111631774902344,984.5823669433594
82932,-10.604547729492188,-7.6633140563964846,3.5973193359375,984.5823669433594
82998,-7.154073028564453,-5.74131088256836,1.5991246032714845,984.5823669433594
83065,-5.136867828369141,-4.2381367492675786,1.651365966796875,984.5823669433594
83131,-7.163353729248048,-5.977519683837891,2.031874694824219,984.5823669433594
83198,-8.252488861083984,-6.7457221984863285,2.8632458496093753,984.5823669433594
83265,-7.523804168701172,-6.500681762695312,2.4962091064453125,984.5823669433594
83331,-5.599106597900391,-6.892566833496094,3.0012588500976562,984.5823669433594
83398,-6.970255279541016,-6.160588989257813,2.7331663513183595,984.5823669433594
83465,-7.355404357910157,-5.931265869140625,1.8857785034179688,984.5823669433594
83531,-7.507787475585938,-5.893544311523438,2.0291802978515627,984.5823669433594
83598,-7.329657897949219,-6.399342498779297,1.8423687744140627,984.5823669433594
83664,-7.053033142089844,-6.338419189453125,1.7320481872558595,984.5823669433594
83731,-6.991062011718751,-5.821843414306641,1.952988739013672,984.5823669433594
83798,-7.216942291259766,-5.90372314453125,1.947001190185547,984.5822906494141
83865,-7.505093078613282,-6.149811401367188,1.9687060546875002,984.5822906494141
83932,-9.299561462402345,-8.140821075439453,2.479893035888672,984.5822906494141
83998,-11.659254455566407,-10.720406799316407,2.9535081481933596,984.5822906494141
84065,-10.461595001220704,-9.176816711425781,1.973346405029297,984.5822906494141
84131,-4.760400695800781,-4.276906127929688,-0.118553466796875,984.5822906494141
84198,-3.1889685058593753,-4.473597106933594,0.45804748535156253,984.5822906494141
84265,-3.5293606567382816,-5.186265106201172,1.3337265014648438,984.5822906494141
84331,-4.481380920410157,-8.534053344726562,-1.8399737548828126,984.5822906494141
84398,-9.414223022460938,-9.131610717773437,2.276466064453125,984.5822906494141
84465,-7.362888793945313,-6.417454833984375,2.8358528137207033,984.5822906494141
84531,-7.104825439453125,-5.595065002441406,4.2818458557128904,984.5822906494141
84598,-4.592899017333985,-5.798641662597657,2.9068052673339846,984.5822906494141
84665,-6.601122894287109,-7.814948730468751,5.467380523681641,984.5822906494141
84731,-5.316494293212891,-6.888824615478516,4.481231231689454,984.5782470703125
84798,-1.803150329589844,-6.759643249511719,5.045108642578125,984.5782470703125
84865,-2.8964767456054688,-6.641089782714844,5.28146713256836,984.5782470703125
84935,-1.8375787353515627,-6.027515716552735,4.807103576660157,984.5782470703125
84998,-1.0795550537109375,-5.785169677734375,5.711223449707031,984.5782470703125
85065,-5.90417221069336,-11.511361999511719,10.579998779296876,984.5782470703125
85130,-5.535339202880859,-8.108188934326172,4.656816101074219,984.5782470703125
85198,-6.774312744140626,-8.686137084960938,3.473826141357422,984.5782470703125
85265,-7.954009552001954,-6.251150665283204,4.466262359619141,984.5782470703125
85331,-5.570516052246094,-5.541925506591797,2.1047731018066407,984.5782470703125
85398,-4.677772521972656,-4.439318389892579,2.0073257446289063,984.5782470703125
85465,-6.30414047241211,-5.869893493652344,2.252665557861328,984.5782470703125
85531,-8.686137084960938,-7.794740753173828,2.9475205993652347,984.5782470703125
85598,-7.927664337158204,-5.8248371887207036,0.2028282165527344,984.5782470703125
85665,-7.320227508544923,-4.438869323730469,2.242786102294922,984.5782470703125
85731,-6.552474060058594,-5.212310943603516,2.715802459716797,984.5709991455078
85798,-7.4359368896484375,-6.691385192871094,2.0502864074707032,984.5709991455078
85865,-6.925198974609375,-6.474336547851562,2.2378463745117188,984.5709991455078
85931,-7.432793426513673,-5.309907989501953,4.393363952636719,984.5709991455078
85998,-6.294410705566406,-5.391787719726563,1.7259109497070313,984.5709991455078
86065,-7.21185287475586,-6.195616149902344,1.4447955322265627,984.5709991455078
86131,-7.571554870605469,-6.7544041442871094,1.3729449462890626,984.5709991455078
86198,-8.814420318603515,-8.175399169921876,2.6135650634765626,984.5709991455078
86265,-10.545420684814454,-10.449619903564454,2.6363177490234375,984.5709991455078
86331,-10.598859558105469,-10.93042007446289,2.0179536437988284,984.5709991455078
86398,-5.653742980957031,-6.341862030029297,0.7707472229003907,984.5709991455078
86465,-3.9607635498046876,-5.868246917724609,1.4437477111816408,984.5709991455078
86531,-3.8360728454589847,-4.70621337890625,0.5456153869628907,984.5709991455078
86598,-2.271376647949219,-3.9910006713867188,-0.6307882690429688,984.5709991455078
86665,-5.515430603027344,-7.191794586181641,-0.7438032531738281,984.5652008056641
86731,-12.834011535644532,-9.504185943603517,7.063511352539063,984.5652008056641
86798,-5.708978118896485,-5.454507293701172,3.090772705078125,984.5652008056641
86865,-3.0252090454101563,-7.5083862304687505,3.131188659667969,984.5652008056641
86931,-4.153712310791016,-5.729036407470703,3.662733306884766,984.5652008056641
86998,-4.8332991027832035,-6.863676910400391,5.619314575195313,984.5652008056641
87065,-2.3007156372070314,-7.457342376708985,6.128705291748047,984.5652008056641
87131,-3.200644226074219,-6.565946044921875,5.20437744140625,984.5652008056641
87198,-1.1219169616699218,-5.793252868652344,3.898642730712891,984.5652008056641
87265,-1.986668701171875,-6.051016845703125,6.611601104736328,984.5652008056641
87331,-11.780801696777344,-11.650123443603515,6.358926544189454,984.5652008056641
87398,-5.63353500366211,-8.271499328613281,3.5655853271484377,984.5652008056641
87465,-7.8797639465332034,-7.858208770751953,3.5687287902832034,984.5652008056641
87531,-5.954916687011719,-4.424648895263672,2.485880584716797,984.5652008056641
87598,-3.237617340087891,-2.7991790771484375,0.00449066162109375,984.5573425292969
87665,-6.472390594482422,-5.6046450805664065,1.2858261108398439,984.5573425292969
87731,-11.202703857421875,-9.213490447998048,1.7524058532714846,984.5573425292969
87798,-6.3583277893066406,-5.321883087158203,2.139800262451172,984.5573425292969
87865,-5.620811462402344,-4.35175048828125,1.1741583251953125,984.5573425292969
87931,-6.665039978027344,-6.038143615722657,2.395767974853516,984.5573425292969
87998,-8.136031036376954,-7.446415100097656,3.0726603698730472,984.5573425292969
88065,-7.218738555908203,-6.278843078613281,2.6288333129882813,984.5573425292969
88131,-6.8737060546875,-6.098318481445313,1.721869354248047,984.5573425292969
88198,-7.175179138183594,-5.537135467529297,3.0165270996093754,984.5573425292969
88265,-7.309599609375001,-5.895939331054688,1.7824932861328127,984.5573425292969
88331,-7.535479888916016,-6.188431091308594,2.0805235290527344,984.5573425292969
88398,-6.7651817321777346,-5.8486376953125,1.699116668701172,984.5573425292969
88465,-7.047794036865235,-6.653214569091797,1.5995736694335938,984.5573425292969
88531,-8.100554809570314,-7.82258285522461,2.3498135375976563,984.5442962646484
88598,-9.626781005859376,-8.853189697265625,2.5944049072265627,984.5442962646484
88665,-10.68418212890625,-9.54699691772461,3.2121702575683595,984.5442962646484
88731,-7.060667266845703,-5.965394897460937,1.6866925048828125,984.5442962646484
88798,-4.877157897949219,-5.132826232910157,0.026794281005859375,984.5442962646484
88865,-6.617139587402344,-8.21626419067383,1.7251625061035156,984.5442962646484
88931,-5.476810913085938,-5.829178161621094,1.4543756103515626,984.5442962646484
88998,-3.5052607727050784,-6.352489929199219,-1.7274078369140626,984.5442962646484
89065,-5.745053100585938,-8.463549957275392,1.975741424560547,984.5442962646484
89131,-8.638685760498047,-7.127578125,4.09787841796875,984.5442962646484
89198,-7.645950164794923,-6.871460723876954,2.8568092346191407,984.5442962646484
89265,-2.4768992614746095,-7.046297149658203,4.53661605834961,984.5442962646484
89331,-2.8732749938964846,-5.7242463684082034,4.969964904785156,984.5442962646484
89398,-3.131338348388672,-7.404951324462891,5.830076293945313,984.5442962646484
89465,-1.7479151916503908,-6.074517974853516,6.046825561523438,984.5269775390625
89531,-1.6772621154785157,-6.255042572021485,5.516777801513673,984.5269775390625
89598,-0.8964857482910157,-5.704637145996094,5.3069142150878905,984.5269775390625
89665,-1.57352783203125,-5.916746063232422,7.72393798828125,984.5269775390625
89731,-10.296488342285157,-11.193572845458984,-0.38125717163085937,984.5269775390625
89798,-2.015259246826172,-6.788084106445313,4.47434555053711,984.5269775390625
89865,-9.387728118896485,-8.9430029296875,4.527934112548828,984.5269775390625
89931,-6.272406463623047,-5.588927764892579,2.784060516357422,984.5269775390625
89998,-5.154680786132813,-6.039939880371094,2.405497741699219,984.5269775390625
90065,-3.85358642578125,-4.220174102783203,1.6289126586914062,984.5269775390625
90132,-5.143154754638672,-5.4001702880859375,1.2892689514160156,984.5269775390625
90198,-9.101223907470704,-7.416776733398438,2.168390808105469,984.5269775390625
90265,-9.357341308593751,-7.394024047851563,3.249742126464844,984.5269775390625
90331,-5.148244171142578,-4.407584381103516,1.6265176391601563,984.5269775390625
90398,-6.405330047607422,-5.666616210937501,3.054697723388672,984.5269775390625
90465,-8.179740142822267,-6.186485137939454,3.090623016357422,984.5090484619141
90531,-7.522307281494141,-6.343807983398438,2.869083709716797,984.5090484619141
90598,-6.660848693847656,-6.033952331542969,2.0555255126953127,984.5090484619141
90665,-6.4535298156738286,-5.858816528320313,1.7806970214843751,984.5090484619141
90731,-7.280559997558594,-6.060596923828125,2.1680914306640626,984.5090484619141
90798,-8.276439056396486,-7.585326232910156,2.927462310791016,984.5090484619141
90865,-10.633138275146486,-10.268945617675781,3.6344421386718753,984.5090484619141
90931,-10.634784851074219,-10.785371704101562,3.107238464355469,984.5090484619141
90998,-6.106850738525391,-6.249653778076172,0.7822732543945313,984.5090484619141
91065,-4.757706298828126,-6.425987091064454,-0.4646337890625,984.5090484619141
91131,-3.1358290100097657,-6.467151489257813,1.0803034973144532,984.5090484619141
91198,-1.6377442932128907,-4.0372544860839845,-0.9683363342285157,984.5090484619141
91265,-5.348228302001953,-6.508465576171876,0.4751119995117188,984.5090484619141
91331,-9.815388793945313,-11.06349334716797,4.218377838134765,984.5090484619141
91398,-8.99329833984375,-5.523214416503906,5.630241851806641,984.4882202148438
91465,-4.635111236572266,-6.246809692382813,3.3413516235351564,984.4882202148438
91531,-2.9096493530273437,-8.702453155517578,4.497247924804688,984.4882202148438
91598,-2.533780975341797,-6.076912994384766,5.7336767578125,984.4882202148438
91665,-2.9154872131347656,-6.821015625,5.401367797851563,984.4882202148438
91731,-1.8305433654785157,-6.7722171020507815,5.300178222656251,984.4882202148438
91798,-1.6384927368164064,-6.438560943603516,5.4845947265625,984.4882202148438
91864,-1.6940272521972657,-5.773493957519531,5.497318267822266,984.4882202148438
91931,-7.980055389404297,-14.633120269775391,7.263645172119141,984.4882202148438
91998,-3.309767303466797,-7.334298248291016,5.418582000732422,984.4882202148438
92065,-7.334298248291016,-8.01418441772461,2.689307556152344,984.4882202148438
92131,-6.795418853759766,-6.79751449584961,3.5642381286621094,984.4882202148438
92198,-5.297184448242188,-5.339845733642578,2.4565415954589844,984.4882202148438
92265,-4.3420207214355475,-3.839815063476563,1.7848883056640625,984.4882202148438
92331,-7.1542227172851565,-6.308631134033203,2.255958709716797,984.4688415527344
92398,-9.683662719726563,-8.446485443115234,2.7855574035644532,984.4688415527344
92465,-6.386768646240235,-5.323080596923829,2.2537133789062502,984.4688415527344
92531,-4.840633850097657,-4.451293487548829,1.8305433654785157,984.4688415527344
92598,-7.093299407958985,-6.165079650878907,2.605182495117188,984.4688415527344
92665,-8.691376190185547,-6.984924774169922,3.9100190734863283,984.4688415527344
92731,-6.058650970458984,-6.373745727539063,3.1554382324218753,984.4688415527344
92798,-6.083349609375,-6.673721923828126,4.578528900146485,984.4688415527344
92865,-7.111711120605469,-5.901328125,2.5610243225097657,984.4688415527344
92932,-6.832541656494141,-5.888754272460938,2.161505126953125,984.4688415527344
92998,-7.060218200683594,-6.341263275146485,2.0314256286621095,984.4688415527344
93065,-6.8320925903320315,-6.63225814819336,2.7556196594238282,984.4688415527344
93131,-8.30727493286133,-8.174950103759766,2.836900634765625,984.4688415527344
93198,-10.851683807373048,-10.681487731933593,3.4840049743652344,984.4688415527344
93265,-11.892170104980469,-11.258986816406251,3.1403196716308597,984.4474792480469
93331,-5.045108642578125,-4.45518539428711,0.2856060791015625,984.4474792480469
93398,-3.1825318908691407,-4.066144409179688,0.8957373046875,984.4474792480469
93465,-3.426973571777344,-4.92221420288086,1.6875906372070313,984.4474792480469
93531,-3.7618272399902346,-6.785689086914063,-0.8611592102050781,984.4474792480469
93598,-8.358468475341798,-8.904532928466796,0.8184979248046875,984.4474792480469
93665,-8.266260223388672,-6.933880920410156,5.200635223388672,984.4474792480469
93731,-7.344327392578125,-6.449637908935547,3.3986824035644534,984.4474792480469
93798,-2.91473876953125,-7.019652557373047,3.2001951599121097,984.4474792480469
93865,-4.957989807128906,-6.665938110351563,5.155279541015625,984.4474792480469
93930,-2.792293395996094,-7.001839599609375,5.49941390991211,984.4474792480469
93998,-1.5349081420898438,-6.949298858642578,5.275030517578125,984.4474792480469
94065,-1.5449372863769533,-6.10535385131836,4.954247589111328,984.4474792480469
94131,-1.0683283996582031,-5.804479522705078,5.25991195678711,984.4474792480469
94198,-2.8795619201660156,-8.71502700805664,10.332114257812501,984.4474792480469
94265,-5.10902572631836,-8.259823608398438,2.124232635498047,984.4306945800781
94330,-6.007008361816407,-6.776408386230469,4.696483612060547,984.4306945800781
94398,-6.642287292480469,-7.366930389404297,3.989952850341797,984.4306945800781
94465,-5.011728057861329,-5.239404602050781,1.9226019287109375,984.4306945800781
94531,-5.502707061767579,-6.007307739257813,2.618654479980469,984.4306945800781
94598,-5.443580017089844,-5.832770690917969,2.173180847167969,984.4306945800781
94665,-7.746391296386719,-7.303312683105469,2.7237359619140626,984.4306945800781
94731,-8.6364404296875,-6.511010284423828,3.6609370422363283,984.4306945800781
94798,-5.745951232910157,-4.359085235595703,0.5595364379882812,984.4306945800781
94865,-7.066205749511719,-4.177213439941406,2.0456460571289066,984.4306945800781
94931,-8.577612762451173,-6.116730194091797,2.646197204589844,984.4306945800781
94998,-7.202123107910157,-6.141428833007812,2.332898712158203,984.4306945800781
95065,-7.023544464111328,-6.9639683532714844,2.787503356933594,984.4306945800781
95131,-5.614973602294922,-7.443720703125001,2.8424391174316406,984.4306945800781
95198,-6.374943237304688,-6.540049896240235,4.1007225036621096,984.4145965576172
95265,-6.5626528930664065,-5.586383056640625,1.929038543701172,984.4145965576172
95331,-7.155869293212891,-6.021378479003906,1.6601976013183595,984.4145965576172
95398,-8.301886138916016,-7.158414001464844,2.5643174743652346,984.4145965576172
95465,-9.567055206298829,-9.552535400390626,2.784958648681641,984.4145965576172
95531,-11.591146087646486,-11.619586944580078,2.64170654296875,984.4145965576172
95598,-6.399043121337891,-6.760092315673829,1.2650193786621093,984.4145965576172
95665,-3.8246965026855473,-4.5285328674316405,1.302740936279297,984.4145965576172
95731,-3.467688903808594,-5.033283233642578,0.3610491943359375,984.4145965576172
95798,-3.0003607177734377,-5.820645904541016,-1.0196795654296875,984.4145965576172
95865,-6.616840209960938,-8.412356414794923,1.2600796508789063,984.4145965576172
95931,-10.37806869506836,-6.833290100097656,5.945186920166016,984.4145965576172
95998,-5.624853057861328,-6.004613342285157,5.383255462646485,984.4145965576172
96065,-3.8086798095703127,-7.735164642333984,4.188589782714844,984.4145965576172
96131,-3.131038970947266,-6.190526733398438,4.520150299072266,984.3978118896484
96198,-1.9508930969238283,-7.4729100036621094,5.2401530456542975,984.3978118896484
96265,-2.1739292907714844,-6.8567912292480475,4.85275863647461,984.3978118896484
96331,-1.1538006591796877,-6.177503814697266,5.7895106506347656,984.3978118896484
96398,-0.7328759765625,-5.590873718261719,4.577780456542969,984.3978118896484
96465,-1.3073812866210939,-6.328090667724609,6.190526733398438,984.3978118896484
96531,-12.019405517578125,-16.902850341796874,7.981252899169922,984.3978118896484
96598,-2.43573486328125,-6.7422793579101565,4.436474304199219,984.3978118896484
96665,-7.880662078857422,-8.30877182006836,4.18215316772461,984.3978118896484
96731,-5.985752563476563,-6.846013641357422,3.3606614685058593,984.3978118896484
96798,-5.8140596008300784,-5.574108581542969,3.2284863281250002,984.3978118896484
96865,-5.419629821777344,-4.628225555419922,2.6029371643066406,984.3978118896484
96931,-6.0236238098144534,-5.335654449462891,1.0629396057128906,984.3978118896484
96998,-8.465645599365235,-6.518045654296875,3.4753230285644534,984.3978118896484
97065,-7.750283203125,-5.826184387207031,2.964585113525391,984.3820953369141
97131,-6.251599731445313,-5.356760559082032,2.6897566223144533,984.3820953369141
97198,-6.356082458496094,-5.8722885131835945,3.0793963623046876,984.3820953369141
97265,-6.223458251953125,-7.710316314697266,3.2795301818847657,984.3820953369141
97331,-6.5096630859375,-6.156397705078125,5.324278106689453,984.3820953369141
97398,-6.667884063720703,-5.607489166259766,2.003134460449219,984.3820953369141
97465,-6.844816131591797,-6.121669921875,2.024839324951172,984.3820953369141
97531,-7.579488372802735,-6.599775695800782,2.867736511230469,984.3820953369141
97598,-8.488547973632812,-8.16028060913086,3.259471893310547,984.3820953369141
97665,-10.499166870117188,-10.022258605957031,3.608995056152344,984.3820953369141
97731,-9.088799743652345,-9.225315856933594,-0.1993853759765625,984.3820953369141
97797,-4.691094818115235,-5.098098449707032,1.1464659118652345,984.3820953369141
97864,-5.458548889160157,-5.975723419189453,1.8197657775878908,984.3820953369141
97931,-4.090693359375,-5.787415008544922,0.17079483032226564,984.3820953369141
97998,-3.1403196716308597,-5.524112548828125,-0.4321513366699219,984.3820953369141
98065,-6.380930786132812,-8.021818542480469,0.5372328186035157,984.3657684326172
98131,-9.096134490966797,-9.04598876953125,3.7520974731445316,984.3657684326172
98198,-9.348809051513673,-6.164480895996094,4.052822113037109,984.3657684326172
98265,-4.211941223144532,-6.6083079528808595,3.9841149902343753,984.3657684326172
98331,-3.449875946044922,-5.604196014404297,4.586163024902344,984.3657684326172
98398,-3.0672715759277347,-7.993677062988282,5.024152221679688,984.3657684326172
98465,-2.3511607360839846,-6.517746276855469,5.825286254882813,984.3657684326172
98531,-1.057401123046875,-6.024521942138672,4.96771957397461,984.3657684326172
98598,-0.4972659301757813,-5.701643371582032,5.2804193115234375,984.3657684326172
98665,-0.5798941040039063,-5.798042907714844,6.630461883544922,984.3657684326172
98731,-11.83573745727539,-13.99260223388672,10.094857635498048,984.3657684326172
98798,-2.855012969970703,-6.645730133056641,5.440137176513672,984.3657684326172
98865,-5.835764465332032,-7.528594207763672,2.8937823486328127,984.3657684326172
98931,-4.978946228027344,-6.336024169921875,3.4742752075195313,984.3657684326172
98998,-5.675896911621094,-5.818550262451172,2.9141400146484377,984.3511199951172
99065,-7.227869567871094,-5.87303695678711,3.2418086242675783,984.3511199951172
99131,-5.75523193359375,-4.02602783203125,-0.07738906860351563,984.3511199951172
99198,-7.9255686950683595,-4.932542724609375,-1.4353651428222658,984.3511199951172
99265,-10.327473907470704,-8.375982055664062,3.3917967224121095,984.3511199951172
99331,-7.570357360839844,-4.985083465576172,3.060685272216797,984.3511199951172
99398,-5.223387908935547,-7.628436584472657,4.162543945312501,984.3511199951172
