relative_time,AccX,AccY,AccZ,BarometerSensor,CompassSensor,,,,
0,3.536246338,-3.912563782,8.04906189,985.0796509,50.39161301,,0,12,106
63,3.476221161,-4.046684875,8.14965271,985.0796509,50.39161301,,0,,
129,3.713627472,-3.986210632,8.158035278,985.0796509,50.39161301,,0,,
196,3.422632599,-4.091292114,8.08648407,985.0796509,50.39161301,,0,,
263,3.496728516,-4.026626587,8.09351944,985.0796509,50.39161301,,0,,
328,3.666924591,-4.108356628,8.23392746,985.0796509,50.39161301,,0,,
395,3.509152679,-4.019890594,8.148604889,985.0796509,50.39161301,,0,,
464,3.337010651,-3.843257904,8.150251465,985.0796509,50.39161301,,0,,
529,3.42248291,-3.234324188,8.010142822,985.0796509,52.13518143,,0.00038147,,
595,3.934118958,-3.728446655,8.021070099,985.0800323,53.65230942,,0,,
662,4.930896149,-2.392025757,8.792266388,985.0800323,55.18060684,,0,,
729,4.0941362,-3.037333832,8.373587036,985.0800323,54.14102936,,0,,
796,5.025050354,-1.850302277,7.73890686,985.0800323,50.10006714,,0,,
863,2.822829895,-1.964963837,7.699688416,985.0800323,46.96806335,,0,,
929,2.906954956,-7.560926971,7.964038696,985.0800323,44.24088287,,0,,
996,0.264799347,-5.828130341,7.773634644,985.0800323,40.33237839,,0,,
1063,1.213526459,-7.17023941,7.301516418,985.0800323,39.20648956,,0,,
1129,2.35535202,-7.296876068,5.590424652,985.0800323,39.20648956,,0,,
1195,0.978664856,-9.309440918,4.829407196,985.0800323,205.2280884,,0,,
1263,-1.830243988,-8.674461365,5.450166321,985.0800323,208.3946686,,0,,
1329,4.789589996,-7.909252625,3.988156586,985.0800323,208.3946686,,0,,
1396,4.693938904,-8.483458557,4.846172333,985.0800323,203.638504,,0,,
1464,-1.001417542,-4.878654785,2.401156769,985.0800323,197.8352356,,0,,
1529,0.711320801,-5.553002472,-7.150330811,985.0800323,185.4217529,,0,,
1595,2.452799377,-9.699529724,-2.772384796,985.0800323,178.69664,,0,,
1663,2.343376923,-9.1570578,-2.630479889,985.0800323,172.6106262,,0,,
1729,2.918780365,-11.6135994,1.012793884,985.0800323,176.4023132,,0,,
1796,6.615942078,-7.296876068,0.544268188,985.0800323,161.8003693,,0,,
1863,7.732470245,-6.460714874,2.169887695,985.0800323,158.2760162,,0,,
1929,5.313799896,-8.490344238,0.536634064,985.0800323,163.9301147,,0,,
1996,6.638844452,-7.292385406,0.161663818,985.0800323,162.7648163,,0,,
2063,6.179300079,-7.645201721,1.041683807,985.0800323,162.7648163,,0,,
2129,5.833070068,-7.252119141,0.806073761,985.0800323,161.5738373,,0,,
2196,5.726641388,-7.727380829,1.395248566,985.0800323,160.3858948,,0,,
2263,6.174360352,-7.938292236,1.811981964,985.0800323,158.4985962,,0,,
2329,5.70299057,-7.039112091,1.215921478,985.0800323,156.3667755,,0,,
2396,5.989794159,-7.332801361,1.353934479,985.0800323,152.7247467,,0.000762939,,
2463,6.046675873,-8.010591888,1.122515717,985.0807953,150.2306976,,0,,
2529,5.401218109,-7.328011322,1.150657196,985.0807953,147.6634827,,0,,
2595,5.479954376,-6.923552399,1.248553619,985.0807953,147.6634827,,0,,
2663,6.398743744,-8.097261658,1.799258423,985.0807953,149.388092,,0,,
2729,6.919660492,-8.509803772,2.3237677,985.0807953,152.5296936,,0,,
2796,5.826034698,-7.30256424,2.008373566,985.0807953,156.7186584,,0,,
2863,5.754633179,-7.18431015,1.772015076,985.0807953,159.3260651,,0,,
2929,6.150410156,-7.652237091,2.456691284,985.0807953,161.8706207,,0,,
2996,6.024222565,-7.362439728,2.240091705,985.0807953,159.3276978,,0,,
3063,5.981112213,-7.678432617,1.635349274,985.0807953,156.7296906,,0,,
3129,6.012846222,-7.541766815,1.81826889,985.0807953,154.467041,,0,,
3196,6.059399414,-7.395520935,1.601669312,985.0807953,152.8900146,,0,,
3263,6.080056458,-7.394173737,1.644480286,985.0807953,151.8646545,,0,,
3329,6.073470154,-7.54356308,1.660646667,985.0807953,150.8154755,,0.00213623,,
3395,5.936355286,-7.626191254,1.741328888,985.0829315,150.8154755,,0,,
3463,5.836961975,-7.67933075,1.797761536,985.0829315,151.8833771,,0,,
3529,5.889951782,-7.795938263,1.902992706,985.0829315,153.1748505,,0,,
3596,5.745651855,-7.741601257,2.017953644,985.0829315,156.5784149,,0,,
3663,5.547314301,-7.560477905,1.938169556,985.0829315,157.8650665,,0,,
3729,5.553900604,-7.483687592,1.706900482,985.0829315,157.8650665,,0,,
3796,5.673052826,-7.782765656,1.704355774,985.0829315,154.7245331,,0,,
3863,5.620063019,-7.966134338,1.720522156,985.0829315,153.0827484,,0,,
3929,5.564079437,-7.732021179,1.925745392,985.0829315,151.8365784,,0,,
3996,5.612728271,-7.582482147,2.799777832,985.0829315,151.8365784,,0,,
4063,5.282514954,-8.066126404,1.675765228,985.0829315,151.8365784,,0,,
4129,5.600304108,-7.712561646,1.553469543,985.0829315,148.816864,,0,,
4196,5.717809753,-7.183561707,1.558109894,985.0829315,147.0942078,,0,,
4263,6.404431915,-7.45105545,1.906884613,985.0829315,147.0942078,,0.00328064,,
4329,7.390730896,-7.062313843,2.602039032,985.0862122,147.0942078,,0,,
4396,5.845045166,-6.701264648,2.387984161,985.0862122,147.0942078,,0,,
4463,6.083499298,-8.010741577,2.159559174,985.0862122,147.0942078,,0,,
4528,5.967041473,-7.69564682,1.897005157,985.0862122,147.0942078,,0,,
4595,5.67963913,-8.073311462,2.067650299,985.0862122,147.0942078,,0,,
4663,5.817502441,-8.365503845,2.946173401,985.0862122,143.8061523,,0,,
4729,7.781867523,-9.226064301,2.395618286,985.0862122,142.657608,,0,,
4796,6.047424316,-8.058941345,1.458417206,985.0862122,141.2140045,,0,,
4862,3.435954895,-5.028792572,0.563428345,985.0862122,138.2441254,,0,,
4929,5.521118774,-8.85633316,0.379460907,985.0862122,133.1627045,,0,,
4995,5.389243011,-10.24948608,-0.07259903,985.0862122,120.7972794,,0,,
5063,2.514321442,-6.709796906,0.594713287,985.0862122,119.8772278,,0,,
5129,5.026996307,-8.394992523,1.96107193,985.0862122,123.5448532,,0,,
5195,4.321962433,-5.492977295,4.797822876,985.0862122,131.0857239,,0.003890991,,
5263,5.962251434,-8.98626297,4.837640076,985.0901031,132.2020264,,0,,
5329,6.042035522,-7.550448761,4.880750427,985.0901031,132.2020264,,0,,
5396,5.353317719,-10.60020676,1.14901062,985.0901031,129.8047638,,0,,
5463,5.379812622,-8.48660202,-0.81550415,985.0901031,123.8980179,,0,,
5529,5.103786621,-6.235732727,-0.114212494,985.0901031,123.8980179,,0,,
5596,8.520281982,-8.36146225,1.216220856,985.0901031,127.6293106,,0,,
5663,5.785169678,-5.197342072,0.574654999,985.0901031,133.5902863,,0,,
5729,6.88717804,-6.667285309,1.291663971,985.0901031,135.350235,,0,,
5795,6.42733429,-7.632178802,1.610351257,985.0901031,135.350235,,0,,
5863,4.999603271,-6.546935577,0.463286591,985.0901031,132.4132843,,0,,
5929,5.476511536,-7.239994354,1.093476105,985.0901031,132.4132843,,0,,
5995,9.217681732,-10.45126648,1.992057495,985.0901031,132.4132843,,0,,
6063,11.15046249,-13.77091324,1.353934479,985.0901031,130.7982635,,0,,
6129,4.757855988,-8.472680969,-0.325572968,985.0901031,128.917923,,0,,
6195,2.776426392,-5.868695984,-1.169368286,985.0901031,112.8250198,,0.003509521,,
6263,3.661835175,-7.209906921,-1.197060699,985.0936127,104.3924561,,0,,
6329,2.64320343,-7.590116272,-0.155376892,985.0936127,112.2972336,,0,,
6396,6.792724457,-9.275760956,-0.675694885,985.0936127,119.7340012,,0,,
6463,5.439239044,-7.610623627,0.704584808,985.0936127,129.6838989,,0,,
6529,2.980452118,-5.662724304,2.966830444,985.0936127,137.1533813,,0,,
6595,1.13149704,-6.762337646,6.76188858,985.0936127,149.9762421,,0,,
6662,1.745520172,-6.917115784,6.028413849,985.0936127,151.8877411,,0,,
6729,3.390000458,-6.443500671,6.444249115,985.0936127,150.7255859,,0,,
6796,8.043972473,-11.26707001,3.240611115,985.0936127,148.636795,,0,,
6863,-0.709374847,-5.670508118,0.354163513,985.0936127,143.0600433,,0,,
6929,9.219777374,-11.48666336,3.32892746,985.0936127,141.4469299,,0,,
6996,4.548591156,-6.612798615,2.853216705,985.0936127,140.0183258,,0,,
7063,5.130131836,-8.375982056,2.094294891,985.0936127,134.0409698,,0,,
7129,4.577032013,-8.992549896,1.280587006,985.0936127,127.7162247,,0.000991821,,
7196,5.607788544,-8.036787415,-0.910257111,985.0946045,116.0995178,,0,,
7263,7.697592773,-7.292385406,-1.524130554,985.0946045,115.8153839,,0,,
7328,6.291416931,-5.884263611,1.289119263,985.0946045,123.0555649,,0,,
7395,7.24044342,-5.823639679,0.980311432,985.0946045,124.403038,,0,,
7463,7.421267395,-6.55367157,1.191372528,985.0946045,125.5696335,,0,,
7529,6.555767212,-6.634054413,1.534608765,985.0946045,126.6301804,,0,,
7595,6.46475647,-6.843768311,1.427281952,985.0946045,125.0091934,,0,,
7663,5.85627182,-6.849755859,1.166823578,985.0946045,121.1170578,,0,,
7729,5.95925766,-7.425758057,1.151106262,985.0946045,120.020401,,0,,
7796,6.190676422,-6.8731073,1.73638916,985.0946045,121.9743958,,0,,
7863,6.740632782,-6.88942337,1.75390274,985.0946045,127.0692062,,0,,
7929,7.782017212,-8.02331543,2.029479675,985.0946045,130.8428802,,0,,
7996,9.675280151,-9.906100159,2.007475433,985.0946045,133.2736816,,0,,
8063,10.01222946,-13.86401962,0.731379089,985.0946045,129.9031677,,0,,
8129,4.077071686,-6.167025604,0.242795105,985.0946045,122.2406921,,0,,
8196,3.832779694,-7.908953247,-0.192948761,985.0946045,108.2043076,,0,,
8263,2.559078369,-6.015690308,0.777183838,985.0946045,109.7742996,,0,,
8328,2.772235107,-4.567901001,0.198337555,985.0946045,114.6165619,,0,,
8396,5.870043182,-7.504045258,0.544866943,985.0946045,121.1981049,,0,,
8463,6.764582977,-8.225095825,1.291065216,985.0946045,128.516098,,0,,
8529,6.45308075,-8.093669128,1.738634491,985.0946045,131.5873413,,0,,
8596,6.297853546,-6.929689636,3.427572327,985.0946045,136.4985962,,0,,
8663,4.694537659,-7.348219299,2.470163269,985.0946045,137.9042358,,0,,
8729,6.02482132,-8.17659668,3.275488586,985.0946045,139.4900055,,0,,
8796,3.234473877,-7.224726105,3.961661682,985.0946045,144.8130188,,0,,
8863,2.031425629,-5.958509216,5.76615921,985.0946045,151.3638306,,0,,
8928,2.884052582,-5.879323883,6.433920593,985.0946045,151.3638306,,0,,
8996,2.976111145,-6.154751129,7.999065857,985.0946045,150.2316437,,-0.0050354,,
9063,6.758146362,-10.69421127,7.037315826,985.0895691,150.735611,,0,,
9129,3.448528748,-8.023016052,6.942263489,985.0895691,148.7885284,,0,,
9196,5.653144226,-8.290509796,1.883533173,985.0895691,140.3179932,,0,,
9263,5.478756866,-7.74249939,-0.10178833,985.0895691,121.2425842,,0,,
9329,6.480324097,-5.457650757,-1.27654541,985.0895691,118.1421967,,0,,
9396,3.46349762,-2.882705383,0.342487793,985.0895691,124.129982,,0,,
9463,7.138056335,-6.461313629,0.993484039,985.0895691,123.7960587,,0,,
9528,9.842183075,-9.691147156,1.963317261,985.0895691,122.2940063,,0,,
9596,5.839806061,-5.430257721,1.547182617,985.0895691,123.7784348,,0,,
9663,5.690566406,-4.958289185,1.740131378,985.0895691,123.7784348,,0,,
9729,7.119794312,-6.658004608,1.795965271,985.0895691,123.7784348,,0,,
9796,6.894961853,-6.64138916,1.795516205,985.0895691,122.6533356,,0,,
9863,6.604565735,-6.679559784,1.593436432,985.0895691,121.5724258,,0,,
9929,6.246360626,-6.449637909,1.366508331,985.0895691,121.5724258,,-0.005874634,,
9996,6.757547607,-7.025939484,1.690135345,985.0836945,122.5731354,,0,,
10063,8.243058472,-8.679401093,2.227517853,985.0836945,125.5300064,,0,,
10129,10.20098694,-10.83476898,2.390977936,985.0836945,126.6164169,,0,,
10196,10.94224548,-12.85601578,0.852327576,985.0836945,127.7334518,,0,,
10263,4.669240265,-6.409521332,-0.195643158,985.0836945,122.0119629,,0,,
10328,2.031725006,-3.777544556,-0.377664642,985.0836945,109.0062256,,0,,
10396,1.911674652,-2.957699432,-0.222736816,985.0836945,104.829071,,0,,
10463,4.558919678,-7.201224976,1.189875641,985.0836945,111.3224182,,0,,
10529,8.450976105,-12.33135681,-1.615740051,985.0836945,116.1001587,,0,,
10596,5.359904022,-6.828200684,-0.24459137,985.0836945,120.4499664,,0,,
10663,5.252427521,-6.218817902,2.26523941,985.0836945,126.3068619,,0,,
10728,5.743107147,-7.465575256,4.698429565,985.0836945,137.6267548,,0,,
10796,6.195466461,-8.191864929,3.973487091,985.0836945,139.1757965,,0,,
10862,4.463118896,-6.581214294,3.163820801,985.0836945,143.1867828,,-0.012359619,,
10929,2.374811554,-7.101831665,5.147046661,985.0713348,150.6334076,,0,,
10996,3.432661743,-6.721772003,5.174888763,985.0713348,152.0584564,,0,,
11062,2.937641144,-6.277944946,4.988526306,985.0713348,152.0584564,,0,,
11129,2.263293457,-5.948480072,7.707621918,985.0713348,152.0584564,,0,,
11196,8.553662567,-10.4642894,7.532935181,985.0713348,150.7466736,,0,,
11263,4.657714233,-12.54855515,3.60390564,985.0713348,144.5233765,,0,,
11329,5.477559357,-6.223458252,3.395089874,985.0713348,137.5510101,,0,,
11396,6.760691071,-7.422614594,0.207767944,985.0713348,130.2562256,,0,,
11463,2.969524841,-2.594255219,0.141904907,985.0713348,128.0477448,,0,,
11529,5.144052887,-4.470753021,0.894839172,985.0713348,129.7698364,,0,,
11596,10.03588028,-9.2566008,0.085023193,985.0713348,124.287056,,0,,
11663,6.496939545,-5.838009796,0.64351181,985.0713348,122.9493942,,0,,
11729,6.653364258,-6.040089569,2.609673157,985.0713348,125.1877365,,0,,
11796,6.732549591,-6.150110779,1.120869141,985.0713348,126.3074417,,-0.016403198,,
11863,6.96082489,-6.625372467,1.679657135,985.0549316,127.3228073,,0,,
11929,6.972650299,-6.301595764,2.155218201,985.0549316,129.6372375,,0,,
11996,7.184010773,-6.215225372,1.737436981,985.0549316,132.4899902,,0,,
12063,7.159312134,-6.591842194,1.786085815,985.0549316,133.8874512,,0,,
12129,6.816674652,-6.435267792,2.13770462,985.0549316,133.8874512,,0,,
12196,7.170987854,-6.494993591,2.07573349,985.0549316,134.9795074,,0,,
12263,7.018305359,-6.240672455,2.015858002,985.0549316,136.1238251,,0,,
12329,6.92804306,-6.145470428,1.973346405,985.0549316,136.1238251,,0,,
12396,7.133266296,-6.4776297,1.949994965,985.0549316,136.1238251,,0,,
12463,8.640182648,-7.64071106,2.599194946,985.0549316,136.1238251,,0,,
12529,11.02607117,-10.06042923,2.132914581,985.0549316,134.9692383,,0,,
12596,10.97218323,-14.262491,0.555345154,985.0549316,130.6980438,,0,,
12663,2.439477081,-5.624104614,-0.866248627,985.0549316,114.6545258,,0,,
12729,2.782863007,-4.375401306,-0.795296173,985.0549316,102.5966187,,-0.019989014,,
12796,2.123633881,-5.269192657,0.601898346,985.0349426,107.397995,,0,,
12863,3.887865143,-6.419400787,-0.824635162,985.0349426,116.5524673,,0,,
12928,7.876770172,-9.447603607,-0.67165329,985.0349426,124.0517044,,0,,
12996,7.056925049,-8.811276855,1.172511749,985.0349426,126.8776016,,0,,
13063,5.673052826,-5.467230835,6.343358917,985.0349426,140.2600403,,0,,
13128,3.032394104,-7.471862183,3.271896057,985.0349426,143.8283844,,0,,
13196,5.080884247,-7.422614594,3.944597168,985.0349426,145.9172668,,0,,
13263,3.243754578,-7.430997162,5.031936035,985.0349426,151.2775879,,0,,
13328,3.165467377,-7.237449646,5.641618195,985.0349426,155.2378693,,0,,
13396,3.059637451,-7.272327118,4.892575836,985.0349426,156.9592743,,0,,
13463,2.188149719,-6.930587769,6.053860931,985.0349426,160.6962891,,0,,
13529,2.06166275,-6.507567444,5.656138,985.0349426,161.8860474,,0,,
13596,1.561253357,-6.064937897,7.134613495,985.0349426,160.6599731,,0,,
13663,4.230053558,-6.516997833,7.811056824,985.0349426,157.7177429,,0,,
13729,6.101911011,-14.23345139,3.539389801,985.0349426,154.835556,,-0.017929077,,
13795,4.042792969,-6.576873322,3.005150757,985.0170135,150.6695709,,0,,
13863,5.37068161,-9.769733734,2.542313232,985.0170135,137.9879303,,0,,
13929,7.528145142,-6.795718231,-0.361797638,985.0170135,127.4381943,,0,,
13996,5.636379089,-4.783602448,2.05582489,985.0170135,130.2627716,,0,,
14063,5.078040161,-2.408940582,0.88106781,985.0170135,137.8821716,,0,,
14129,6.315067749,-6.452032928,0.884211273,985.0170135,132.7937469,,0,,
14196,8.227640533,-9.591304779,1.011446686,985.0170135,125.4000015,,0,,
14263,6.230643311,-6.950496368,2.141147461,985.0170135,126.5214615,,0,,
14328,5.684429169,-6.149512024,2.102078705,985.0170135,132.6233978,,0,,
14396,6.564898224,-6.906637573,1.718576202,985.0170135,135.3304901,,0,,
14463,6.71982605,-6.926546173,2.623743896,985.0170135,138.4124908,,0,,
14528,6.598278809,-6.25174942,2.333946533,985.0170135,142.5254364,,0,,
14596,7.961943054,-6.834188232,2.885998535,985.0170135,145.1808319,,0,,
14663,6.568939819,-6.346951447,2.530038757,985.0170135,145.1808319,,-0.022125244,,
14728,6.637347565,-6.605613556,2.076182556,984.9948883,145.1808319,,0,,
14796,6.210734711,-6.428232422,1.827250214,984.9948883,143.9970245,,0,,
14862,6.603517914,-6.646628265,2.000440063,984.9948883,143.9970245,,0,,
14928,7.13281723,-7.412136383,2.291734314,984.9948883,142.9481049,,0,,
14996,7.058571625,-7.104076996,2.168540497,984.9948883,142.9481049,,0,,
15063,8.467292175,-7.993527374,2.422262878,984.9948883,142.9481049,,0,,
15128,8.426726532,-7.984396362,1.521885223,984.9948883,144.2325745,,0,,
15196,4.372407532,-5.31215332,0.769400024,984.9948883,139.1882629,,0,,
15263,5.678591309,-7.439230042,1.265468445,984.9948883,131.8304901,,0,,
15329,6.360722809,-10.18332367,2.778821411,984.9948883,121.2036133,,0,,
15396,4.414320374,-5.698200531,1.342707825,984.9948883,126.1220322,,0,,
15463,5.514382782,-7.595654755,2.061812439,984.9948883,127.948143,,0,,
15529,5.481600952,-5.6269487,4.07078476,984.9948883,130.0383148,,0,,
15596,6.275250549,-6.456673279,2.777025146,984.9948883,128.142807,,-0.020370483,,
15663,6.515650635,-6.406976624,3.20723053,984.9745178,127.1061935,,0,,
15729,8.229736176,-7.892038422,6.278094635,984.9745178,133.3431244,,0,,
15796,7.639962616,-8.455167389,3.30782135,984.9745178,133.3431244,,0,,
15863,6.546037445,-9.777367859,0.433348846,984.9745178,127.9769211,,0,,
15928,5.110223236,-5.037474518,1.370400238,984.9745178,129.9463348,,0,,
15996,8.767567749,-8.869356079,2.008074188,984.9745178,131.2459564,,0,,
16063,5.660628662,-6.062692566,1.507964172,984.9745178,131.2459564,,0,,
16129,5.758674774,-5.604495392,1.55975647,984.9745178,131.2459564,,0,,
16196,6.81697403,-6.493047638,2.738255768,984.9745178,132.6392059,,0,,
16262,6.70695282,-5.677842865,3.411405945,984.9745178,133.8708191,,0,,
16329,7.086114349,-6.945257263,1.93996582,984.9745178,130.5896301,,0,,
16396,8.162675629,-6.989714813,2.4126828,984.9745178,123.2590256,,0,,
16463,8.728349304,-8.359216919,1.053209839,984.9745178,117.6806107,,0,,
16529,7.550149384,-8.736731873,1.906136169,984.9745178,116.3814316,,-0.016098022,,
16595,3.415148163,-6.439608765,0.126187592,984.9584198,108.6880569,,0,,
16663,7.007976837,-10.28092072,2.752625885,984.9584198,101.5990982,,0,,
16728,6.285878448,-5.285209351,2.406395874,984.9584198,106.4747238,,0,,
16796,4.154161377,-6.595883789,2.392624512,984.9584198,105.1333847,,0,,
16863,5.334756317,-7.506589966,1.970053253,984.9584198,103.4759293,,0,,
16929,6.521189117,-5.595963135,3.109184418,984.9584198,99.82089996,,0,,
16996,5.974376221,-6.653963013,3.391946411,984.9584198,97.38002014,,0,,
17063,6.766229553,-6.877448273,4.609664154,984.9584198,98.42362976,,0,,
17129,7.688162384,-6.965764618,4.26493103,984.9584198,97.02293396,,0,,
17196,5.739514618,-8.504864044,0.40715332,984.9584198,92.95425415,,0,,
17262,5.380261688,-7.765102386,0.580492859,984.9584198,84.7572403,,0,,
17328,7.338339844,-8.008795624,2.320025482,984.9584198,78.21173096,,0,,
17396,6.156098328,-6.021977234,0.2176474,984.9584198,72.93611145,,0,,
17463,6.40742569,-5.772146759,1.117725677,984.9584198,70.41265869,,-0.006484985,,
17529,6.665189667,-6.452481995,1.982776794,984.9519348,68.17058563,,0,,
17596,7.212152252,-7.145091705,2.624941406,984.9519348,66.72548676,,0,,
17662,7.398664398,-5.53219574,3.641776886,984.9519348,69.71533203,,0,,
17729,8.598419495,-7.186854858,0.648451538,984.9519348,62.27093887,,0,,
17796,8.110434265,-8.891659698,2.451601868,984.9519348,54.00207138,,0,,
17863,6.187233582,-7.369774475,1.610351257,984.9519348,50.50268936,,0,,
17929,3.203039246,-5.217100983,0.302371216,984.9519348,41.33541489,,0,,
17996,7.021598511,-12.32821335,2.168091431,984.9519348,28.11261177,,0,,
18063,6.218518524,-6.570436707,1.768123169,984.9519348,29.58051872,,0,,
18129,4.611460419,-5.318140869,3.404520264,984.9519348,27.01182365,,0,,
18196,5.673651581,-6.269861755,2.852767639,984.9519348,21.1692543,,0,,
18263,5.631139984,-6.681805115,3.406765594,984.9519348,17.85279465,,0,,
18329,8.380472717,-7.090904388,5.024152222,984.9519348,16.48707962,,0,,
18396,6.417305145,-7.477101288,5.410049744,984.9519348,15.00042534,,-0.004653931,,
18462,6.131100311,-9.124725037,0.316591644,984.9472809,12.22733498,,0,,
18528,5.290897522,-8.539142761,-0.677640839,984.9472809,5.13223505,,0,,
18596,6.136339417,-5.318290558,1.488055573,984.9472809,3.88275671,,0,,
18663,9.080716553,-8.255332947,1.771715698,984.9472809,2.500864029,,0,,
18728,7.02983139,-6.365063782,0.860859833,984.9472809,1.057620049,,0,,
18796,5.737418976,-5.517376556,1.552272034,984.9472809,359.4284973,,0,,
18863,6.849007416,-6.409820709,2.509082336,984.9472809,359.4284973,,0,,
18928,7.04629715,-6.175258484,2.228266296,984.9472809,1.953835011,,0,,
18996,7.455246735,-5.454806671,5.378764801,984.9472809,4.542412281,,0,,
19063,8.218060455,-7.544161835,2.178419952,984.9472809,359.8320923,,0,,
19129,9.308692474,-9.34895874,1.762734375,984.9472809,359.8320923,,0,,
19196,5.593867493,-6.595135345,0.466130676,984.9472809,355.8569336,,0,,
19263,3.493585052,-5.192701721,0.293539581,984.9472809,349.2267761,,0,,
19328,7.137906647,-10.63598236,-0.014819183,984.9472809,335.2506409,,-0.000839233,,
19396,3.877087555,-7.233408051,1.189875641,984.9464417,337.0906982,,0,,
19463,6.750362549,-4.872966614,4.126468964,984.9464417,341.3235779,,0,,
19529,5.013224945,-5.909411316,3.60615097,984.9464417,342.7201233,,0,,
19596,7.408693542,-7.732320557,3.738924866,984.9464417,341.1504211,,0,,
19662,7.5751474,-6.447392578,5.510640564,984.9464417,343.0075378,,0,,
19728,8.401578827,-9.29866333,2.087708588,984.9464417,341.4425659,,0,,
19796,4.929399261,-6.767277374,0.471968536,984.9464417,336.5873718,,0,,
19862,6.176306305,-6.549929352,1.041534119,984.9464417,335.2322693,,0,,
19928,8.481362915,-8.802445221,1.722917175,984.9464417,333.7223816,,0,,
19996,5.41753418,-5.041665802,0.728535004,984.9464417,336.0960999,,0,,
20063,6.264472961,-6.041885834,1.362616425,984.9464417,336.0960999,,0,,
20128,7.202422485,-7.287595367,2.978955231,984.9464417,339.698761,,0,,
20196,7.290140076,-6.578370209,2.465223541,984.9464417,345.0791321,,0,,
20263,8.110434265,-6.846911774,0.335602112,984.9464417,342.8448792,,0,,
20328,7.075336761,-6.840026093,3.491190033,984.9464417,337.8722534,,0,,
20396,9.203610992,-9.708361359,1.801803131,984.9464417,334.4572449,,0,,
20462,5.79070816,-6.378535767,0.517922974,984.9464417,332.8662415,,0,,
20528,3.117417297,-5.158273315,0.468675385,984.9464417,327.0706482,,0,,
20596,7.352111206,-13.36495743,3.786076813,984.9464417,320.1808472,,0,,
20663,6.035748596,-6.159541168,2.145039368,984.9464417,324.844574,,0,,
20728,3.859873352,-5.617967377,2.793790283,984.9464417,322.3972473,,0,,
20796,6.225404205,-6.825206909,2.763104095,984.9464417,321.2350159,,0,,
20863,5.391638031,-5.876928864,3.651207275,984.9464417,321.2350159,,0,,
20928,6.061794434,-6.089337158,3.137625275,984.9464417,319.4680786,,0,,
20996,7.334747314,-7.089407501,3.563339996,984.9464417,317.6926575,,0,,
21063,7.547604675,-6.899302826,3.600612488,984.9464417,317.6926575,,0,,
21129,5.080734558,-7.155569916,2.307601318,984.9464417,319.9985352,,0,,
21196,5.85507431,-9.204509125,-0.201031952,984.9464417,319.9985352,,0,,
21263,6.443350983,-5.962850189,0.043559418,984.9464417,319.9985352,,0.003509521,,
21328,8.785530396,-7.247628479,-0.012424164,984.9499512,319.9985352,,0,,
21396,7.72603363,-7.038962402,1.021924896,984.9499512,319.9985352,,0,,
21462,6.408922577,-5.751340027,1.346899109,984.9499512,322.1913757,,0,,
21528,7.296876068,-7.052284698,1.246607666,984.9499512,322.1913757,,0,,
21596,7.642058258,-7.005132751,1.118174744,984.9499512,320.2937317,,0,,
21662,5.952072601,-5.37532196,1.249751129,984.9499512,319.2514038,,0,,
21728,7.841293945,-7.29897171,1.351090393,984.9499512,319.2514038,,0,,
21796,6.704707489,-5.69835022,1.189725952,984.9499512,319.2514038,,0,,
21862,7.269483032,-6.01194809,1.043629761,984.9499512,319.2514038,,0,,
21929,7.244634705,-6.318360901,1.100511475,984.9499512,319.2514038,,0,,
21996,7.378306732,-7.551795959,1.995500336,984.9499512,318.0909424,,0,,
22062,8.530161438,-8.122109985,1.710043945,984.9499512,316.9963989,,0,,
22129,8.852441254,-9.068741455,1.287622375,984.9499512,315.6046448,,0,,
22196,7.472910004,-8.559350739,0.442180481,984.9499512,314.5979004,,0.005264282,,
22263,4.63121933,-5.747298431,-0.033380585,984.9552155,309.5264587,,0,,
22328,5.524262238,-9.637259216,-0.248483276,984.9552155,304.5708923,,0,,
22395,4.241130524,-7.571405182,-0.38963974,984.9552155,300.0115356,,0,,
22463,4.431833954,-7.129823456,-0.065264282,984.9552155,300.0115356,,0,,
22529,4.609215088,-7.727829895,-0.586630096,984.9552155,302.9986267,,0,,
22596,5.381758575,-8.006550293,0.33111145,984.9552155,305.4578857,,0,,
22663,6.295907593,-8.517437897,1.427581329,984.9552155,310.8901367,,0,,
22728,4.525988159,-7.539970551,2.639012146,984.9552155,314.53479,,0,,
22796,5.39523056,-7.893684998,3.110830994,984.9552155,315.9820251,,0,,
22863,4.391268311,-7.258555756,2.808908844,984.9552155,319.394989,,0,,
22929,3.732039185,-7.713459778,3.638633423,984.9552155,322.3339233,,0,,
22996,3.542682953,-6.571035461,5.359904022,984.9552155,328.6578064,,0,,
23062,2.518662415,-7.432044983,5.300627289,984.9552155,333.4331665,,0,,
23129,2.997666321,-6.656956787,5.347479858,984.9552155,334.9127808,,0.002746582,,
23195,2.598446503,-7.019951935,6.034401398,984.957962,337.2606506,,0,,
23263,2.531535645,-6.995702362,6.031707001,984.957962,337.2606506,,0,,
23328,3.158881073,-6.961573334,6.834786987,984.957962,337.2606506,,0,,
23395,8.890911255,-15.65025513,7.76704834,984.957962,336.1514587,,0,,
23463,2.114502869,-6.644083557,3.035537567,984.957962,331.0061646,,0,,
23528,5.713019714,-7.292535095,3.184777222,984.957962,322.5042725,,0,,
23596,6.367758179,-10.1179097,-0.751437378,984.957962,307.3526306,,0,,
23663,6.571933594,-5.449268188,-0.62360321,984.957962,304.5745239,,0,,
23728,4.42524765,-3.381168823,-1.029559021,984.957962,307.328064,,0,,
23796,7.610473938,-7.173981628,0.420625305,984.957962,306.2783203,,0,,
23863,7.989036713,-8.195906525,1.467847595,984.957962,306.2783203,,0,,
23929,5.697302399,-5.356161804,1.198856964,984.957962,307.834137,,0,,
23996,5.135221252,-4.660258942,1.372795258,984.957962,312.2831726,,0,,
24062,7.373067627,-6.593339081,1.376537476,984.957962,313.7408447,,0,,
24128,9.185798035,-9.785151672,1.773511963,984.957962,313.7408447,,0,,
24196,5.460345154,-5.538183289,1.458117828,984.957962,317.473999,,0,,
24263,7.964936829,-7.433841248,1.980830841,984.957962,320.0959778,,0,,
24328,7.542066193,-8.026907959,2.930755463,984.957962,320.0959778,,0,,
24396,10.246642,-11.11693222,1.132095795,984.957962,316.5705566,,0,,
24463,7.855664063,-12.44646744,-1.05545517,984.957962,311.8297424,,0,,
24529,2.601889343,-7.218439178,-1.139729919,984.957962,299.6836548,,0,,
24596,2.252815247,-7.514523468,-0.534538422,984.957962,286.693573,,0,,
24663,3.172353058,-6.908583527,0.09475296,984.957962,292.9710388,,0,,
24729,4.999902649,-7.078629913,1.265169067,984.957962,299.0227051,,0,,
24796,5.826034698,-7.222630463,0.42242157,984.957962,302.5426636,,0,,
24862,5.747597809,-6.608158264,0.094303894,984.957962,305.0476685,,0,,
24928,5.082680511,-9.03311554,0.74649765,984.957962,306.2255554,,0,,
24996,6.607260132,-8.224347382,1.757345581,984.957962,309.384613,,-0.004730225,,
25063,5.618566132,-8.246201935,2.456092529,984.9532318,313.6419373,,0,,
25129,4.521647186,-7.409292297,3.163820801,984.9532318,321.8078308,,0,,
25196,2.512525177,-7.260801086,4.929698639,984.9532318,327.6507568,,0,,
25263,3.363655243,-7.416776733,4.527784424,984.9532318,332.3833923,,0,,
25328,3.051254883,-7.329657898,3.943399658,984.9532318,333.9039307,,0,,
25396,2.738555145,-7.265740814,5.483397217,984.9532318,335.7367249,,0,,
25463,3.575165405,-7.215146027,6.643933868,984.9532318,336.8213196,,0,,
25528,4.279450836,-8.100255432,6.046825562,984.9532318,336.8213196,,0,,
25595,5.902076569,-13.94994095,4.366869049,984.9532318,334.5882874,,0,,
25663,3.148103485,-4.825365601,1.337468719,984.9532318,328.3883972,,0,,
25728,6.891219635,-10.47102539,1.011446686,984.9532318,315.8947144,,0,,
25795,5.932014313,-5.630840607,0.235310669,984.9532318,313.6876221,,0,,
25863,3.667523346,-3.148851929,0.481847992,984.9532318,313.6876221,,0,,
25929,6.511908417,-4.899012451,-0.267643433,984.9532318,313.6876221,,-0.009689331,,
25996,9.313332825,-9.006021881,1.520837402,984.9435425,312.3343201,,0,,
26063,7.205116882,-6.967111816,1.746567993,984.9435425,314.3739624,,0,,
26128,5.489534454,-5.300627289,2.012115784,984.9435425,318.3183899,,0,,
26195,6.187233582,-6.060147858,1.602118378,984.9435425,318.3183899,,0,,
26262,6.565796356,-6.739884338,2.030527496,984.9435425,318.3183899,,0,,
26328,6.219117279,-6.248156891,1.899400177,984.9435425,318.3183899,,0,,
26395,7.553592224,-7.360493774,2.140848083,984.9435425,318.3183899,,0,,
26462,8.448132019,-8.618777161,2.065105591,984.9435425,318.3183899,,0,,
26528,9.404044189,-9.44026886,2.398761749,984.9435425,317.0640869,,0,,
26595,8.413404236,-10.95332245,1.017284546,984.9435425,313.8623352,,0,,
26663,4.237537994,-6.939718781,0.29249176,984.9435425,303.6496582,,0,,
26728,3.817511444,-7.003486176,-0.348325653,984.9435425,296.1983337,,0,,
26795,3.313060455,-6.384373627,0.299676819,984.9435425,299.4463196,,0,,
26863,4.479434967,-6.764133911,0.186661835,984.9435425,304.9410706,,-0.014953613,,
26929,6.516399078,-8.789871368,1.225800934,984.9285889,308.7078857,,0,,
26995,6.224506073,-7.968080292,1.183289337,984.9285889,311.3344116,,0,,
27063,5.217550049,-7.185807037,1.929786987,984.9285889,314.7590027,,0,,
27128,5.077740784,-6.469546509,3.102298737,984.9285889,319.3003235,,0,,
27195,5.715564423,-7.843838654,2.507286072,984.9285889,320.5101318,,0,,
27262,6.621929626,-8.450676727,2.624791718,984.9285889,322.6180725,,0,,
27328,3.785627747,-7.281757507,3.26800415,984.9285889,328.3418579,,0,,
27395,3.641627197,-7.57050705,5.682034149,984.9285889,335.193573,,0,,
27462,2.595153351,-7.126230927,4.899461517,984.9285889,339.1630249,,0,,
27528,2.056573334,-7.048841858,5.322481842,984.9285889,342.1932678,,0,,
27596,1.759890289,-6.667285309,5.107229462,984.9285889,343.6188965,,0,,
27663,1.533261566,-6.959028625,6.956783295,984.9285889,343.6188965,,0,,
27729,8.571924591,-11.32484985,7.625891876,984.9285889,343.6188965,,0,,
27795,-0.149389343,-10.72235275,5.180427246,984.9285889,341.3691711,,0,,
27863,7.290439453,-7.942333832,2.509232025,984.9285889,337.2959595,,-0.016937256,,
27929,4.09997406,-7.869435425,0.498912506,984.9116516,320.984314,,0,,
27995,6.055956573,-7.665709076,-1.216520233,984.9116516,309.2658691,,0,,
28063,7.045698395,-5.289101257,-2.873125305,984.9116516,302.2750244,,0,,
28128,4.785997467,-4.144132233,-0.99572937,984.9116516,311.5655823,,0,,
28195,8.103548584,-6.709946594,-0.996627502,984.9116516,312.8803711,,0,,
28262,8.600215759,-7.86060379,0.861308899,984.9116516,312.8803711,,0,,
28329,6.279741211,-5.750890961,2.442620544,984.9116516,316.6498718,,0,,
28395,7.29552887,-6.388564911,1.760039978,984.9116516,319.6492004,,0,,
28462,6.478677521,-5.66092804,1.332528992,984.9116516,322.5244446,,0,,
28529,6.472240906,-6.288722534,1.08120163,984.9116516,321.198761,,0,,
28595,7.170987854,-7.642507324,1.757046204,984.9116516,318.0733948,,0,,
28662,6.847211151,-6.93747345,2.168690186,984.9116516,318.0733948,,0,,
28728,6.641089783,-6.204447784,1.290915527,984.9116516,323.0151367,,0,,
28796,7.02399353,-6.449787598,1.671873322,984.9116516,324.1833496,,-0.012969971,,
28863,7.256011047,-6.494694214,1.92484726,984.8986816,324.1833496,,0,,
28928,8.442593536,-7.324867859,2.288291473,984.8986816,325.4987793,,0,,
28995,10.03528152,-9.967472534,2.1061203,984.8986816,325.4987793,,0,,
29063,10.79091019,-12.07209595,2.111808472,984.8986816,324.3787537,,0,,
29129,4.497397614,-5.758525085,0.241896973,984.8986816,320.7307434,,0,,
29195,4.237088928,-6.715485077,-0.6529422,984.8986816,311.7245789,,0,,
29263,5.485492859,-9.561516724,0.448916473,984.8986816,303.3832703,,0,,
29328,3.175197144,-5.239703979,0.745898895,984.8986816,308.2060852,,0,,
29395,4.784650269,-5.836213531,0.569565582,984.8986816,312.6289063,,0,,
29463,6.326893158,-7.707172852,0.982257385,984.8986816,321.4782715,,0,,
29528,7.296277313,-8.515641632,0.99108902,984.8986816,327.369751,,0,,
29595,5.738766174,-6.566694489,1.817370758,984.8986816,330.0358582,,0,,
29662,5.965394897,-6.062393188,2.038460999,984.8986816,331.1475525,,0,,
29729,6.352938995,-6.931485901,1.616338806,984.8986816,332.2733459,,-0.01121521,,
29795,7.936046906,-8.22449707,2.520458679,984.8874664,333.6037598,,0,,
29862,5.902375946,-7.116650848,2.580783234,984.8874664,334.9746704,,0,,
29929,4.95769043,-7.092251587,3.920197906,984.8874664,339.9223938,,0,,
29995,3.600013733,-6.484216003,5.224884796,984.8874664,345.3766174,,0,,
30063,3.61438385,-6.786886597,4.844376068,984.8874664,348.5243835,,0,,
30128,3.60151062,-7.113956451,5.709876251,984.8874664,349.7819214,,0,,
30195,4.030219116,-7.454049225,6.790479126,984.8874664,351.0736389,,0,,
30263,3.677402802,-7.04509964,7.131919098,984.8874664,351.0736389,,0,,
30329,11.14222961,-14.18719757,5.145250397,984.8874664,347.3883667,,0,,
30395,4.932393036,-6.148314514,1.657353516,984.8874664,337.5081482,,0,,
30463,7.831564178,-8.440048828,0.908161469,984.8874664,324.4737549,,0,,
30528,4.225862274,-4.230352936,0.695154419,984.8874664,318.7876892,,0,,
30595,2.258353729,-1.526226196,-1.297202454,984.8874664,318.7876892,,0,,
30663,6.033652954,-6.005661163,-2.823278961,984.8874664,313.3040161,,-0.012893677,,
30728,12.49302063,-12.14200058,1.647623749,984.8745728,313.582489,,0,,
30795,6.46116394,-6.554120636,2.642155609,984.8745728,324.5769653,,0,,
30862,5.17533783,-3.530558167,1.510059814,984.8745728,333.7737732,,0,,
30928,7.435038757,-8.177644501,3.81915802,984.8745728,339.6061401,,0,,
30995,7.4265065,-5.250481567,1.112187195,984.8745728,334.3522034,,0,,
31063,8.133336639,-7.610473938,2.295177155,984.8745728,334.3522034,,0,,
31129,6.808591461,-6.349645844,1.081501007,984.8745728,329.4841614,,0,,
31195,5.850134583,-6.662944336,0.692160645,984.8745728,324.2824402,,0,,
31263,6.781198425,-7.416177979,0.89513855,984.8745728,323.1918335,,0,,
31329,6.963818665,-6.601122894,1.473984833,984.8745728,325.1887817,,0,,
31395,6.907386017,-6.011648712,1.314416656,984.8745728,328.5473328,,0,,
31463,6.961124268,-7.216642914,2.112257538,984.8745728,328.5473328,,0,,
31529,8.273894348,-8.640332336,2.399061127,984.8745728,327.4269409,,0,,
31595,11.24880798,-12.13047455,2.599194946,984.8745728,327.4269409,,-0.013198853,,
31663,8.181536407,-9.266929321,0.373623047,984.8613739,327.4269409,,0,,
31728,4.048780518,-5.308411102,0.101938019,984.8613739,321.5123596,,0,,
31795,3.958518219,-4.586911469,0.872086487,984.8613739,310.8243103,,0,,
31862,4.295018463,-5.755980377,-0.12289444,984.8613739,308.6179504,,0,,
31929,5.209317169,-6.84736084,0.210761719,984.8613739,321.9936218,,0,,
31995,7.915539551,-8.836873627,-0.738115082,984.8613739,324.1211853,,0,,
32062,6.034251709,-6.797514496,2.796933746,984.8613739,327.3106689,,0,,
32128,4.154011688,-4.447102203,2.077380066,984.8613739,333.5220947,,0,,
32195,7.244335327,-8.991651764,2.434387665,984.8613739,337.2358093,,0,,
32263,5.90072937,-8.126450958,4.600682831,984.8613739,339.8460083,,0,,
32328,4.679419098,-6.475683746,4.901706848,984.8613739,346.8666687,,0,,
32395,3.785927124,-7.248227234,5.585335236,984.8613739,352.9412842,,0,,
32462,3.907324677,-5.966891785,5.894292755,984.8613739,354.1093445,,0,,
32528,1.792821808,-6.50217865,5.670807495,984.8613739,358.5595703,,-0.011672974,,
32595,2.118843842,-5.821693726,6.223458252,984.8497009,359.5635376,,0,,
32663,2.051783295,-6.029910736,8.32868042,984.8497009,358.1091614,,0,,
32728,5.067861328,-7.282805328,7.663014679,984.8497009,355.7635193,,0,,
32795,7.849227448,-15.18846542,3.515140228,984.8497009,349.918396,,0,,
32862,4.567751312,-5.755381622,2.091750183,984.8497009,349.918396,,0,,
32928,6.320456543,-8.109087067,1.5129039,984.8497009,338.1104736,,0,,
32995,6.594087524,-5.802383881,-0.533789978,984.8497009,328.8124084,,0,,
33063,3.775598602,-3.588038635,1.557511139,984.8497009,328.8124084,,0,,
33129,7.217391357,-6.891519012,0.433797913,984.8497009,327.6393738,,0,,
33195,9.943821716,-9.972861328,-0.314346313,984.8497009,324.358551,,0,,
33263,6.055507507,-5.996530151,-0.27378067,984.8497009,323.3199463,,0,,
33328,6.590794373,-6.645730133,1.445394287,984.8497009,323.3199463,,0,,
33395,6.800358582,-6.313720551,0.781225433,984.8497009,324.5799561,,0,,
33462,6.684349823,-6.36177063,0.767154694,984.8497009,326.0431824,,-0.01159668,,
33528,7.395820313,-6.68824173,1.047371979,984.8381042,327.412384,,0,,
33595,7.796087952,-7.186106415,0.88106781,984.8381042,327.412384,,0,,
33663,6.665189667,-5.885461121,0.803229675,984.8381042,327.412384,,0,,
33728,6.85439621,-6.164929962,0.600700836,984.8381042,327.412384,,0,,
33795,6.509812775,-6.181096344,0.750090179,984.8381042,326.3021545,,0,,
33863,8.110434265,-7.915988617,1.49883316,984.8381042,326.3021545,,0,,
33928,10.29214737,-8.427774353,0.527503052,984.8381042,327.8942261,,0,,
33995,10.75154205,-13.235327,-0.192350006,984.8381042,323.3186951,,0,,
34062,4.499942322,-7.220684509,0.597108307,984.8381042,317.6711121,,0,,
34129,3.728746033,-6.712191925,1.328337708,984.8381042,309.8157349,,0,,
34195,3.65180603,-5.887407074,0.820743256,984.8381042,315.0584106,,0,,
34262,2.910397797,-4.328548737,-0.215851135,984.8381042,319.3898621,,0,,
34329,5.65389267,-8.05250473,-0.360749817,984.8381042,320.5061646,,0,,
34395,7.701334991,-10.4642894,0.412691803,984.8381042,324.4881287,,-0.014953613,,
34462,6.020031281,-7.157216492,2.250569916,984.8231506,329.3362732,,0,,
34529,5.441933441,-7.489525452,2.395019531,984.8231506,332.0609436,,0,,
34595,4.959037628,-7.35166214,2.329755249,984.8231506,335.3303528,,0,,
34663,5.745951233,-8.079748077,4.179159393,984.8231506,339.5949707,,0,,
34728,2.669548645,-6.620133362,5.900130615,984.8231506,349.6608887,,0,,
34795,2.700683899,-6.900650024,5.412594452,984.8231506,353.7593994,,0,,
34862,3.29734314,-6.745273132,5.465284882,984.8231506,354.776123,,0,,
34928,2.42675354,-6.33722168,5.467230835,984.8231506,355.8587646,,0,,
34995,2.533930664,-7.494614868,6.019133148,984.8231506,355.8587646,,0,,
35063,3.050805817,-6.509663086,7.583230591,984.8231506,355.8587646,,0,,
35128,8.925489349,-14.39212143,9.158554688,984.8231506,354.7046204,,0,,
35195,2.623743896,-6.483317871,4.020040283,984.8231506,348.6078186,,0,,
35263,6.512507172,-7.453001404,2.831212463,984.8231506,341.0369263,,0,,
35329,6.715634766,-7.242239685,-1.414857788,984.8231506,325.3671265,,0,,
35395,3.76062973,-3.690874786,-1.858834534,984.8231506,321.7608032,,-0.019073486,,
35463,5.031936035,-3.682492218,-2.335144043,984.8040771,327.2742615,,0,,
35528,8.762628021,-7.834707642,-1.845512238,984.8040771,323.9613953,,0,,
35595,8.583151245,-8.842412109,3.7278479,984.8040771,328.2658997,,0,,
35663,6.206992493,-5.958509216,2.631976776,984.8040771,333.5473328,,0,,
35729,5.754932556,-4.716990967,1.025966492,984.8040771,341.3544312,,0,,
35795,7.595804443,-5.56258255,2.467618561,984.8040771,347.0528564,,0,,
35863,8.068521423,-6.707701263,2.588716736,984.8040771,347.0528564,,0,,
35929,7.69804184,-6.612050171,2.217937775,984.8040771,347.0528564,,0,,
35995,6.780300293,-6.264772339,1.435365143,984.8040771,343.4338684,,0,,
36063,6.240672455,-6.337521057,1.194965057,984.8040771,334.208313,,0,,
36129,6.390810242,-7.366631012,1.325643311,984.8040771,327.9159241,,0,,
36195,6.208190002,-6.640940094,1.368304596,984.8040771,326.1466675,,0,,
36263,6.970404968,-6.764133911,1.697170715,984.8040771,329.7157898,,0,,
36329,9.109456787,-8.452023926,1.930385742,984.8040771,333.352478,,-0.01914978,,
36395,9.692194977,-8.352181549,1.778751068,984.7849274,334.62323,,0,,
36463,10.65843567,-11.82076859,2.32496521,984.7849274,335.7789612,,0,,
36528,5.919141083,-7.61376709,0.630189514,984.7849274,332.7545471,,0,,
36595,4.185296631,-6.909481659,0.462089081,984.7849274,324.9308777,,0,,
36664,2.037413177,-4.932842102,0.228874054,984.7849274,310.0941162,,0,,
36729,0.934506683,-5.006938019,0.464035034,984.7849274,313.6770325,,0,,
36795,5.918093262,-8.061186676,0.302820282,984.7849274,318.2839966,,0,,
36863,9.753267975,-9.699529724,-0.051343231,984.7849274,327.6862488,,0,,
36928,5.803731079,-5.06411911,4.256249084,984.7849274,335.7520447,,0,,
36995,4.490511932,-6.41086853,3.065625,984.7849274,340.343689,,0,,
37063,4.901856537,-8.860075378,3.906127167,984.7849274,343.422699,,0,,
37128,5.284011841,-8.177045746,4.856500854,984.7849274,347.3119507,,0,,
37195,3.676953735,-6.400689697,4.97280899,984.7849274,350.5278625,,0,,
37263,3.05394928,-6.761140137,5.035678253,984.7849274,354.148468,,-0.021438599,,
37328,3.394042053,-6.971003723,5.523813171,984.7634888,355.1522522,,0,,
37395,2.807411957,-6.544839935,5.868546295,984.7634888,356.4011536,,0,,
37462,2.655926971,-6.003116455,6.396797791,984.7634888,357.4483032,,0,,
37529,3.617078247,-6.404282227,7.551047516,984.7634888,357.4483032,,0,,
37595,4.990621948,-9.706714783,6.443800049,984.7634888,357.4483032,,0,,
37662,5.193749542,-11.49564468,5.545368347,984.7634888,353.3982239,,0,,
37728,5.081782379,-5.402714996,2.143093414,984.7634888,344.1911926,,0,,
37795,6.173162842,-6.0224263,0.007334747,984.7634888,333.5648804,,0,,
37863,4.245321808,-3.954776001,1.139131165,984.7634888,329.6335144,,0,,
37928,5.211412811,-4.343068542,-0.296383667,984.7634888,330.7999573,,0,,
37995,8.270301819,-7.877817993,0.205522614,984.7634888,329.7608032,,0,,
38063,8.06073761,-8.15668808,3.395838318,984.7634888,331.6766052,,0,,
38128,5.651347961,-5.22204071,2.265538788,984.7634888,336.4610596,,0,,
38195,6.380332031,-5.40106842,1.722767487,984.7634888,344.8492737,,-0.024642944,,
38263,7.776628418,-6.814279633,2.671793976,984.7388458,347.6747742,,0,,
38329,7.787855072,-6.212680664,3.264112244,984.7388458,348.8859558,,0,,
38395,6.831044769,-6.332281952,2.051633606,984.7388458,345.1949463,,0,,
38462,6.795568542,-6.2891716,2.149679718,984.7388458,340.1289673,,0,,
38528,6.699767761,-6.564000092,2.128872986,984.7388458,337.2870178,,0,,
38595,6.344406738,-6.480922852,1.963616638,984.7388458,336.1288757,,0,,
38662,6.659651184,-7.025340729,1.780397644,984.7388458,337.3502808,,0,,
38729,8.06657547,-8.457861786,2.264940033,984.7388458,338.5896606,,0,,
38795,10.36265076,-10.03243744,2.992726593,984.7388458,339.8182068,,0,,
38864,10.69136719,-12.06296494,1.155147858,984.7388458,339.8182068,,0,,
38928,5.334606628,-6.836583252,0.417631531,984.7388458,336.9595032,,0,,
38995,2.737357635,-4.219425659,0.125439148,984.7388458,319.2354431,,0,,
39063,1.274449768,-4.780908051,0.59905426,984.7388458,309.7440186,,0,,
39128,3.615132294,-6.804699554,0.84125061,984.7388458,312.5975037,,-0.01914978,,
39195,7.966583405,-9.815688171,1.015937347,984.719696,319.3743591,,0,,
39263,6.271807709,-6.425088959,1.477727051,984.719696,330.4507141,,0,,
39329,7.522906036,-6.9222052,1.850901031,984.719696,335.2987976,,0,,
39395,5.273084564,-6.832691345,3.12759613,984.719696,339.1713562,,0,,
39462,5.849086761,-9.168284454,3.833677826,984.719696,342.3596802,,0,,
39528,4.428840179,-7.209607544,5.996230774,984.719696,347.0614014,,0,,
39595,3.519930267,-6.114035797,6.331683197,984.719696,353.1209717,,0,,
39662,3.35347641,-6.319558411,5.55210434,984.719696,355.5434265,,0,,
39728,1.709594879,-5.594915314,5.601501617,984.719696,212.900177,,0,,
39795,1.268312531,-5.676345978,6.787335663,984.719696,212.900177,,0,,
39861,2.449955292,-5.421126709,7.403753815,984.719696,214.2444611,,0,,
39928,2.553539886,-5.777984619,9.686207428,984.719696,3.095505238,,0,,
39995,3.51379303,-10.59287201,6.1710672,984.719696,1.272706032,,0,,
40063,3.936963043,-5.730383606,4.265978851,984.719696,355.7149048,,-0.017242432,,
40128,4.019591217,-4.866829376,3.120860138,984.7024536,347.6826172,,0,,
40195,7.697443085,-11.04642883,-0.295335846,984.7024536,333.9728088,,0,,
40263,4.322112122,-3.541186066,-0.898132324,984.7024536,331.8709106,,0,,
40329,3.671864319,-4.100722504,-0.119002533,984.7024536,333.9102783,,0,,
40395,8.195008392,-9.015152893,0.446671143,984.7024536,327.4637756,,0,,
40463,8.20114563,-8.666078796,1.554068298,984.7024536,329.3049927,,0,,
40529,5.296436005,-4.92954895,1.621577911,984.7024536,333.8143005,,0,,
40595,6.224356384,-5.461842041,1.445244598,984.7024536,338.2470093,,0,,
40662,7.988587646,-6.82745224,1.913021851,984.7024536,338.2470093,,0,,
40728,7.504644012,-6.409521332,1.77740387,984.7024536,339.3120117,,0,,
40795,6.900350647,-6.686445465,1.858235779,984.7024536,339.3120117,,0,,
40862,6.508615265,-6.555617523,1.941911774,984.7024536,338.1636047,,0,,
40928,6.90813446,-6.582112427,1.691781921,984.7024536,338.1636047,,0,,
40995,6.422394562,-6.442303162,1.30229187,984.7024536,338.1636047,,-0.014038086,,
41062,6.996899872,-7.655230865,1.734293518,984.6884155,333.7497864,,0,,
41128,7.679630127,-8.591384125,2.056872711,984.6884155,332.4620972,,0,,
41195,11.05990082,-11.09163483,2.0371138,984.6884155,329.6322327,,0,,
41263,9.05182663,-11.1000174,0.2667453,984.6884155,328.575531,,0,,
41328,3.848047943,-6.217171326,0.343086548,984.6884155,319.1640625,,0,,
41395,3.588787079,-6.099515991,0.339044952,984.6884155,312.9102783,,0,,
41463,2.53797226,-3.938160553,0.714763641,984.6884155,319.4128113,,0,,
41528,4.311184845,-6.21193222,0.584833832,984.6884155,323.5574646,,0,,
41595,7.360344086,-9.846823425,0.114212494,984.6884155,324.7226868,,0,,
41663,6.237978058,-8.224796448,0.947679291,984.6884155,331.7139587,,0,,
41728,5.063220978,-6.263724518,2.241588593,984.6884155,336.3831787,,0,,
41795,6.802753601,-7.381599884,2.675236816,984.6884155,341.0604248,,0,,
41863,6.405629425,-7.867190094,2.799179077,984.6884155,342.4102783,,0,,
41928,6.491999817,-7.983348541,3.104993134,984.6884155,344.140564,,-0.01373291,,
41995,4.070036316,-7.006929016,4.007616119,984.6746826,348.3239441,,0,,
42062,3.167113953,-6.968009949,4.727618866,984.6746826,354.4386597,,0,,
42128,3.786076813,-7.487729187,4.51655777,984.6746826,357.1713257,,0,,
42195,3.208577728,-7.158713379,4.647385712,984.6746826,358.370636,,0,,
42262,2.985691223,-7.309300232,5.242847443,984.6746826,0.046880722,,0,,
42328,2.723436584,-7.351512451,5.896538086,984.6746826,0.046880722,,0,,
42395,4.40893158,-7.133865051,9.070687408,984.6746826,0.046880722,,0,,
42463,4.637655945,-10.61757065,4.632716217,984.6746826,0.046880722,,0,,
42528,5.436844025,-10.46578629,3.799698486,984.6746826,348.4086304,,0,,
42595,5.238207092,-5.740113373,0.837658081,984.6746826,336.6003723,,0,,
42663,6.829398193,-6.84152298,-0.860710144,984.6746826,325.9101868,,0,,
42728,2.519710236,-2.4923172,-0.435743866,984.6746826,325.9101868,,0,,
42795,6.270610199,-5.920338593,-0.882115631,984.6746826,325.9101868,,0,,
42863,10.40082138,-9.77841568,1.587448883,984.6746826,327.3007202,,0,,
42928,7.212301941,-6.933282166,2.06525528,984.6746826,333.3725891,,-0.014038086,,
42995,5.840704193,-4.592449951,1.832489319,984.6606445,338.96521,,0,,
43062,7.3084021,-6.101312256,1.433568878,984.6606445,342.4856262,,0,,
43128,8.29829361,-7.864346008,2.519111481,984.6606445,342.4856262,,0,,
43195,6.642736359,-6.317163391,1.787582703,984.6606445,340.938446,,0,,
43262,6.514004059,-6.314768372,1.574425964,984.6606445,337.6297913,,0,,
43328,6.735094299,-6.756948853,1.882784729,984.6606445,335.2460938,,0,,
43395,6.690786438,-6.634503479,1.734742584,984.6606445,333.5103455,,0,,
43463,6.621929626,-6.325246582,1.525627441,984.6606445,333.5103455,,0,,
43528,6.771768036,-6.061794434,1.384321289,984.6606445,333.5103455,,0,,
43595,8.890761566,-8.247100067,1.975292358,984.6606445,334.8863525,,0,,
43663,10.74390793,-10.08437943,2.198478241,984.6606445,336.355957,,0,,
43728,10.11596375,-12.28166016,0.903521118,984.6606445,333.9942017,,0,,
43795,3.957769775,-5.738466797,0.325423279,984.6606445,324.9344482,,0,,
43862,3.307222595,-6.33018631,1.407373352,984.6606445,312.2705383,,-0.014648438,,
43928,3.119812317,-6.697372742,0.873882751,984.6459961,315.818573,,0,,
43995,4.342469788,-6.151308289,-0.096549225,984.6459961,316.9314575,,0,,
44062,6.409072266,-8.192463684,1.153351593,984.6459961,320.1252136,,0,,
44128,7.733218689,-7.828121338,2.002386017,984.6459961,324.6749878,,0,,
44195,5.996380463,-6.111042023,3.465293884,984.6459961,331.0761719,,0,,
44263,4.480333099,-6.71279068,3.442840576,984.6459961,334.6730652,,0,,
44328,3.785478058,-7.06845108,5.687572632,984.6459961,342.4064636,,0,,
44395,3.799099731,-6.252797241,7.024891663,984.6459961,347.0482483,,0,,
44463,3.819008331,-6.294560394,5.638325043,984.6459961,347.0482483,,0,,
44528,3.748654633,-6.321803741,6.160139923,984.6459961,351.2000427,,0,,
44595,3.103945313,-6.431226196,6.203699341,984.6459961,353.1056519,,0,,
44663,2.574645996,-6.376290436,6.748416595,984.6459961,354.9790344,,0,,
44728,2.905158691,-6.108647003,5.916596375,984.6459961,355.9953613,,0,,
44795,1.635948029,-6.597680054,6.022276611,984.6459961,355.9953613,,-0.011138916,,
44861,3.602558441,-7.620353394,7.689659271,984.6348572,354.5143127,,0,,
44928,6.132896576,-8.812174988,7.458240509,984.6348572,351.0803528,,0,,
44995,3.563639374,-7.227869568,5.96973587,984.6348572,349.9247742,,0,,
45063,4.553680573,-8.634494476,3.561244354,984.6348572,344.6292419,,0,,
45128,5.839806061,-6.924450531,1.564696198,984.6348572,333.0774841,,0,,
45195,7.451205139,-6.736441498,-0.490829315,984.6348572,327.1562195,,0,,
45262,4.88045105,-4.511618042,0.940643921,984.6348572,327.1562195,,0,,
45328,5.100792847,-4.847220154,-0.798888702,984.6348572,321.8484497,,0,,
45395,8.035140839,-8.9991362,0.764759674,984.6348572,319.7639465,,0,,
45463,8.308322754,-8.874295807,3.081342316,984.6348572,324.2703552,,0,,
45528,5.778283997,-5.692063293,2.118694153,984.6348572,333.427063,,0,,
45595,6.352938995,-5.662574615,1.890568542,984.6348572,339.0125427,,0,,
45663,7.464078369,-6.062093811,2.595602417,984.6348572,342.6741028,,0,,
45728,6.531517639,-6.40622818,2.437830505,984.6348572,341.0011292,,-0.009613037,,
45795,7.318281555,-7.104376373,2.063758392,984.6252441,339.6770935,,0,,
45862,6.597230988,-6.535708923,1.918710022,984.6252441,339.6770935,,0,,
45928,6.306685181,-6.273454285,1.625320129,984.6252441,338.156311,,0,,
45995,7.153474274,-7.656877441,1.960772552,984.6252441,334.9783325,,0,,
46063,8.122858429,-8.198301544,2.074386292,984.6252441,331.7355652,,0,,
46128,9.976453857,-12.30605942,1.655856628,984.6252441,326.4405212,,0,,
46195,6.122418365,-9.808353424,-0.201181641,984.6252441,314.6870422,,0,,
46262,2.104324036,-5.763315125,-0.916394348,984.6252441,311.8306885,,0,,
46328,3.560196533,-5.739364929,0.841849365,984.6252441,319.1667786,,0,,
46395,4.40653656,-5.949976959,0.56866745,984.6252441,326.7138062,,0,,
46462,6.727609863,-8.874146118,1.433419189,984.6252441,331.1593628,,0,,
46528,6.981332245,-8.893755341,2.329455872,984.6252441,336.8232727,,0,,
46595,4.491559753,-6.838828583,3.520079956,984.6252441,338.037384,,0,,
46663,5.241051178,-6.569688263,2.270029449,984.6252441,338.037384,,-0.00869751,,
46728,4.965474243,-7.985444183,3.60390564,984.6165466,341.3191833,,0,,
46795,4.470303955,-7.474855957,5.341043243,984.6165466,349.1196289,,0,,
46862,2.985092468,-6.118676147,6.624773712,984.6165466,353.6810913,,0,,
46928,2.512974243,-6.690786438,5.304219818,984.6165466,355.1839294,,0,,
46995,2.821333008,-6.126459961,5.617967377,984.6165466,356.311676,,0,,
47063,2.525548096,-6.624025269,6.377188568,984.6165466,357.378479,,0,,
47128,2.304607544,-6.344556427,6.666087799,984.6165466,358.4555969,,0,,
47195,2.776875458,-6.494843903,7.595355377,984.6165466,358.4555969,,0,,
47262,4.344266052,-9.909692688,6.249653778,984.6165466,357.1568298,,0,,
47328,5.186564484,-8.465046844,4.146377563,984.6165466,353.3811035,,0,,
47395,3.471281433,-5.982010345,1.95403656,984.6165466,342.1043396,,0,,
47463,4.690795441,-10.2878064,1.711540833,984.6165466,332.5999756,,0,,
47528,7.922724609,-5.032385101,-1.386865997,984.6165466,325.2707825,,0,,
47595,4.184099121,-3.432661743,0.953966217,984.6165466,328.0891113,,-0.012130737,,
47662,5.431604919,-4.630919952,-0.250578918,984.6044159,326.148407,,0,,
47728,8.979676666,-9.238638153,0.585582275,984.6044159,323.2510986,,0,,
47795,7.930209045,-7.402256927,1.313518524,984.6044159,326.0209961,,0,,
47862,5.412594452,-4.978048096,2.313439178,984.6044159,331.8380737,,0,,
47928,6.88478302,-6.292165375,1.441951447,984.6044159,337.3721924,,0,,
47995,7.682474213,-7.670349426,1.964365082,984.6044159,338.5606689,,0,,
48062,6.140231323,-6.473438416,1.562750244,984.6044159,338.5606689,,0,,
48128,6.214476929,-6.75844574,1.169218597,984.6044159,337.1945496,,0,,
48194,6.981481934,-7.126380615,1.894759827,984.6044159,335.6673889,,0,,
48263,6.978039093,-6.135291595,1.591640167,984.6044159,335.6673889,,0,,
48328,7.65702713,-5.999972992,1.643731842,984.6044159,336.8905945,,0,,
48395,6.868766327,-6.843618622,1.54448822,984.6044159,335.5968323,,0,,
48462,7.915240173,-8.260721741,1.811981964,984.6044159,335.5968323,,0,,
48528,10.31864227,-10.80318466,2.232906647,984.6044159,334.074646,,-0.013504028,,
48595,10.43180695,-12.52550308,0.753832397,984.5909119,329.3752136,,0,,
48662,4.419559479,-6.992109833,0.011376343,984.5909119,322.3406067,,0,,
48728,1.369202728,-5.073399811,-1.208437042,984.5909119,302.3693848,,0,,
48795,1.970801697,-4.162693634,0.871038666,984.5909119,301.5834961,,0,,
48863,4.410877533,-5.956114197,0.762065277,984.5909119,308.2677307,,0,,
48928,9.330846405,-10.91575058,0.3264711,984.5909119,318.4270325,,0,,
48995,6.177204437,-5.853577423,-0.060623932,984.5909119,325.4631653,,0,,
49063,5.990392914,-7.970175934,1.658551025,984.5909119,326.6195374,,0,,
49128,3.99234787,-6.963818665,2.238295441,984.5909119,328.0484619,,0,,
49195,6.175108795,-10.01552261,3.559298401,984.5909119,331.9064331,,0,,
49262,4.609664154,-7.699089661,6.138435059,984.5909119,336.5670166,,0,,
49328,2.315385132,-5.799240417,5.547763367,984.5909119,341.9129944,,0,,
49395,2.107467499,-5.94758194,6.184090118,984.5909119,201.2252655,,0,,
49463,2.084116058,-5.3203862,6.427034912,984.5909119,199.8058319,,0,,
49528,1.29884903,-5.636229401,6.666087799,984.5909119,198.4720154,,-0.01449585,,
49595,0.616268463,-5.210514679,7.033573608,984.576416,198.4720154,,0,,
49662,0.779578857,-6.210734711,8.410260773,984.576416,349.5606995,,0,,
49728,6.272107086,-12.25112366,10.94763428,984.576416,347.7193604,,0,,
49795,-0.372874603,-9.225016479,3.023712158,984.576416,345.9899292,,0,,
49861,5.392685852,-7.223229218,3.040926361,984.576416,341.9852905,,0,,
49928,5.335953827,-9.98318985,0.53004776,984.576416,322.4048462,,0,,
49995,5.818101196,-5.027445374,-2.414329376,984.576416,314.4723206,,0,,
50063,2.169738007,-2.254012756,0.301473083,984.576416,319.5934753,,0,,
50128,5.838009796,-5.871689758,0.39667511,984.576416,321.5030823,,0,,
50195,10.50111282,-10.67909271,0.519120483,984.576416,312.3618774,,0,,
50263,5.82004715,-5.580545197,0.967288513,984.576416,313.4335938,,0,,
50328,5.465883636,-5.221891022,1.598825226,984.576416,315.9865723,,0,,
50395,7.235653381,-7.37621109,0.983754272,984.576416,315.9865723,,0,,
50462,6.81921936,-6.871610413,1.948797455,984.576416,314.6304626,,-0.016479492,,
50527,6.776558075,-6.706503754,1.566492462,984.5599365,314.6304626,,0,,
50595,6.595285034,-6.586154022,1.475631409,984.5599365,314.6304626,,0,,
50662,6.789131927,-6.599476318,1.83697998,984.5599365,315.7051697,,0,,
50728,7.162006531,-5.724396057,3.829785919,984.5599365,315.7051697,,0,,
50795,7.427853699,-7.275919647,1.526076508,984.5599365,309.1007996,,0,,
50863,9.293573914,-9.117989044,1.444346466,984.5599365,306.068512,,0,,
50928,8.152945862,-9.12083313,2.066901855,984.5599365,302.6637268,,0,,
50995,3.445385284,-4.947661285,-0.097896423,984.5599365,296.0061646,,0,,
51063,4.27900177,-6.143225098,-0.126786346,984.5599365,287.4613647,,0,,
51128,8.553213501,-12.42715759,0.675994263,984.5599365,273.4699707,,0,,
51195,4.474495239,-6.173611908,0.791853333,984.5599365,272.946228,,0,,
51263,7.128027191,-5.789660339,2.888692932,984.5599365,277.0153198,,0,,
51328,6.228547668,-6.094426575,4.738695831,984.5599365,284.7170715,,0,,
51395,5.345533905,-5.861361237,3.153492279,984.5599365,281.6200256,,-0.016403198,,
51463,6.890770569,-7.662266235,2.149530029,984.5435333,277.7459106,,0,,
51527,6.804998932,-6.299350433,3.198847961,984.5435333,278.1167297,,0,,
51595,7.301965485,-7.758516083,5.577551422,984.5435333,282.8517151,,0,,
51663,6.916666718,-9.095535736,1.112636261,984.5435333,282.8517151,,0,,
51728,5.420378265,-7.630981293,0.80622345,984.5435333,270.8937378,,0,,
51795,5.808072052,-5.423821106,1.453776855,984.5435333,263.6443787,,0,,
51863,8.608448639,-8.659642181,0.361647949,984.5435333,263.6443787,,0,,
51927,6.437662811,-6.251150665,0.239352264,984.5435333,262.1286926,,0,,
51995,5.920937347,-5.344037018,1.526675262,984.5435333,260.5147705,,0,,
52062,6.680158539,-6.433321838,2.303559723,984.5435333,260.5147705,,0,,
52128,7.13401474,-6.614744568,1.993105316,984.5435333,264.7156067,,0,,
52195,6.972201233,-5.860313416,2.729723511,984.5435333,271.3945007,,0,,
52262,8.218509521,-8.139773254,-0.551453247,984.5435333,267.3103943,,0,,
52328,8.122109985,-7.65118927,3.106340332,984.5435333,262.0779114,,-0.013198853,,
52395,9.199868774,-9.394164734,1.537003784,984.5303345,258.7511292,,0,,
52463,4.729115753,-5.441634064,0.455353088,984.5303345,258.7511292,,0,,
52528,4.387077026,-6.587052155,-0.127385101,984.5303345,251.5955505,,0,,
52595,8.370443573,-10.05758514,-0.18022522,984.5303345,235.0731506,,0,,
52662,4.192631378,-6.721472626,1.847458191,984.5303345,236.6555786,,0,,
52727,6.886579285,-5.143304443,2.041903839,984.5303345,244.4881897,,0,,
52795,4.697531433,-6.211782532,3.561244354,984.5303345,251.4589539,,0,,
52862,5.844895477,-5.96629303,3.697311401,984.5303345,251.4589539,,0,,
52927,9.195228424,-7.135960693,3.051404572,984.5303345,248.412384,,0,,
52995,7.868986359,-7.296876068,5.6269487,984.5303345,249.4210205,,0,,
53063,7.54236557,-10.39034317,1.479523315,984.5303345,250.5768738,,0,,
53128,5.059029694,-6.850953369,0.241298218,984.5303345,244.7643738,,0,,
53195,5.108277283,-4.607269135,0.96654007,984.5303345,239.0433197,,0,,
53263,8.838220825,-8.380772095,1.975292358,984.5303345,237.5561218,,-0.006790161,,
53328,6.515800323,-6.053860931,0.332608337,984.5235443,237.5561218,,0,,
53395,5.767207031,-5.640420685,0.692759399,984.5235443,232.2339783,,0,,
53462,6.510860596,-6.178701324,2.398312683,984.5235443,229.0298157,,0,,
53528,7.031627655,-6.048921204,2.401755524,984.5235443,231.8215027,,0,,
53595,8.409961395,-5.175188141,6.383026428,984.5235443,236.5969086,,0,,
53662,8.47612381,-7.059020691,1.683549042,984.5235443,232.4058228,,0,,
53728,8.82594635,-9.50104248,1.100212097,984.5235443,232.4058228,,0,,
53795,5.507347412,-5.920488281,0.14160553,984.5235443,229.6976013,,0,,
53863,5.242997131,-7.383695526,-0.537232819,984.5235443,217.6568298,,0,,
53928,7.580236816,-9.655221863,-0.925675049,984.5235443,206.5054932,,0,,
53995,3.714525604,-5.66437088,1.251846771,984.5235443,210.0951538,,0,,
54062,5.285957794,-5.529651031,3.888613586,984.5235443,215.922348,,0,,
54128,5.733078003,-5.642815704,4.324058075,984.5235443,215.922348,,0,,
54195,7.747738495,-7.488327942,2.931952972,984.5235443,211.6095581,,-0.006103516,,
54262,9.182205505,-5.113815765,4.455185394,984.5174408,214.8238983,,0,,
54328,5.676944733,-9.830657043,3.791615295,984.5174408,220.357254,,0,,
54395,6.290668488,-8.205336914,-0.20941452,984.5174408,213.5227203,,0,,
54462,5.796396332,-5.504353638,0.019459534,984.5174408,202.2928162,,0,,
54528,7.383545837,-8.149353333,2.493365021,984.5174408,198.8385315,,0,,
54595,5.372926941,-5.657185822,0.334254913,984.5174408,195.8001099,,0,,
54663,5.735622711,-5.189408569,0.295186157,984.5174408,193.542984,,0,,
54728,7.194488983,-6.702761536,1.313518524,984.5174408,192.3578644,,0,,
54795,7.625143433,-6.582411804,2.198328552,984.5174408,196.2636414,,0,,
54861,7.419620819,-3.467838593,13.0654303,984.5174408,196.0574951,,0,,
54928,10.02061203,-8.715775452,1.618733826,984.5174408,185.4874573,,0,,
54995,8.463400269,-8.673263855,1.215622101,984.5174408,185.4874573,,0,,
55062,3.292104034,-5.753884735,-0.085023193,984.5174408,181.7025146,,0,,
55128,5.471871185,-8.49363739,-1.072819061,984.5174408,174.1446991,,-0.005722046,,
55195,4.197571106,-9.321266327,0.358654175,984.5117188,166.5209656,,0,,
55263,3.80508728,-3.834126892,1.30468689,984.5117188,172.980957,,0,,
55328,5.988147583,-6.283633118,3.61677887,984.5117188,174.4295197,,0,,
55395,6.561754761,-6.610852661,4.343068542,984.5117188,175.7169037,,0,,
55463,9.148076477,-7.564519501,3.579057312,984.5117188,178.1089325,,0,,
55527,4.555027771,-5.926775208,3.277883606,984.5117188,181.7838898,,0,,
55595,7.735763397,-10.51757858,0.07843689,984.5117188,176.5654144,,0,,
55663,4.874912567,-4.955744476,-1.139729919,984.5117188,160.0120697,,0,,
55728,8.462352448,-8.336613922,2.010020142,984.5117188,158.3036652,,0,,
55795,5.365592194,-5.200635223,-1.260828094,984.5117188,160.2756653,,0,,
55863,5.642067261,-5.433251495,-1.315913544,984.5117188,154.3781738,,0,,
55927,6.763535156,-6.400689697,2.483635254,984.5117188,155.6235504,,0,,
55995,7.12697937,-6.459966431,1.756597137,984.5117188,161.9725952,,0,,
56062,10.13033386,-5.344635773,4.992567902,984.5117188,170.7774658,,0,,
56127,9.775421906,-8.949140167,-0.416434021,984.5117188,158.8452301,,-0.000610352,,
56195,8.999734955,-9.052724762,2.154320068,984.5111084,162.0377502,,0,,
56263,3.74895401,-5.47246994,-0.344583435,984.5111084,160.2310333,,0,,
56328,5.432952118,-7.57050705,-2.315983887,984.5111084,152.7013397,,0,,
56394,6.154900818,-9.377399597,0.144000549,984.5111084,145.3968353,,0,,
56463,3.838168488,-5.449268188,1.218915253,984.5111084,153.8249207,,0,,
56527,4.563709717,-5.906267853,3.574716339,984.5111084,158.642807,,0,,
56595,6.290219421,-6.511010284,5.295088806,984.5111084,161.9765472,,0,,
56663,12.19499039,-8.381819916,5.682483215,984.5111084,164.8609619,,0,,
56727,4.901706848,-6.036047974,3.634142761,984.5111084,167.4722748,,0,,
56795,7.069199524,-11.1756102,-1.256936188,984.5111084,162.548172,,0,,
56863,5.17878067,-4.232897644,0.101339264,984.5111084,157.3302765,,0,,
56928,7.951315155,-7.219337311,2.538421326,984.5111084,158.5701752,,0,,
56995,6.840924225,-6.463858337,-0.07140152,984.5111084,156.6183014,,0,,
57062,5.530549164,-4.975802765,0.59785675,984.5111084,154.1593475,,-0.000228882,,
57127,6.653963013,-6.012995911,2.224973145,984.5108795,154.1593475,,0,,
57195,7.226672058,-6.589447174,1.848805389,984.5108795,159.214386,,0,,
57263,8.040679321,-6.740632782,4.208348694,984.5108795,159.2922363,,0,,
57328,10.43539948,-8.600664825,1.171912994,984.5108795,155.3266754,,0,,
57395,7.639962616,-8.363557892,0.916693726,984.5108795,159.3611908,,0,,
57463,4.372856598,-6.246210938,-0.218096466,984.5108795,156.9859467,,0,,
57527,6.343209229,-7.703131256,-1.061592407,984.5108795,149.8348999,,0,,
57595,4.712051239,-6.887776794,0.326321411,984.5108795,145.5507355,,0,,
57662,4.044439545,-5.951473846,1.873204651,984.5108795,153.7537842,,0,,
57728,5.995332642,-6.397546234,2.990630951,984.5108795,158.649704,,0,,
57795,7.947423248,-6.871011658,4.010011139,984.5108795,163.5351105,,0,,
57862,7.925868073,-7.457192688,7.567812653,984.5108795,168.1932831,,0,,
57928,7.250023499,-7.888595581,4.349505157,984.5108795,168.079483,,0,,
57995,6.294859772,-7.76585083,-1.315913544,984.5108795,158.5325775,,-0.00328064,,
58062,5.38594986,-5.493725739,-0.114811249,984.5075989,156.6403961,,0,,
58127,10.07899063,-10.09201355,3.67994751,984.5075989,155.5839691,,0,,
58195,4.14562912,-3.922742615,0.4153862,984.5075989,155.5839691,,0,,
58262,5.37068161,-4.008514252,0.270637207,984.5075989,156.8988647,,0,,
58328,7.998467102,-7.743547211,2.361489258,984.5075989,161.2968903,,0,,
58395,6.56998764,-5.186564484,8.566535797,984.5075989,164.190918,,0,,
58462,10.85647385,-7.505392456,-2.80935791,984.5075989,156.188385,,0,,
58527,10.32298325,-10.06491989,3.547323303,984.5075989,156.188385,,0,,
58595,6.173312531,-5.867797852,0.085023193,984.5075989,157.2755737,,0,,
58662,2.927911377,-5.418132935,-0.252973938,984.5075989,154.9611969,,0,,
58727,8.170609131,-11.68440216,-1.696422272,984.5075989,145.3576202,,0,,
58795,4.341272278,-6.438860321,1.364263,984.5075989,151.6949615,,0,,
58862,3.973337402,-5.274581451,2.521656189,984.5075989,159.7971954,,0,,
58927,5.050796814,-6.254294128,3.514691162,984.5075989,161.1756897,,-0.000839233,,
58995,8.968450012,-7.824528809,2.952460327,984.5067596,161.1756897,,0,,
59062,10.05144791,-5.265749817,6.17570755,984.5067596,159.9940338,,0,,
59128,8.651708679,-9.981243896,2.096091156,984.5067596,161.562561,,0,,
59195,5.230572968,-9.140592041,-0.665516052,984.5067596,156.3437195,,0,,
59262,4.180805969,-4.393962708,0.146994324,984.5067596,155.0596161,,0,,
59328,10.26011398,-10.42566971,1.913470917,984.5067596,156.3169403,,0,,
59395,5.523364105,-4.910239105,0.398920441,984.5067596,159.0983734,,0,,
59462,5.597759399,-5.115462341,0.963995361,984.5067596,165.7023468,,0,,
59528,8.260272675,-6.929989014,2.303559723,984.5067596,168.9052429,,0,,
59595,5.930068359,-6.76188858,2.379451904,984.5067596,166.836731,,0,,
59662,7.290140076,-5.958509216,1.046773224,984.5067596,163.5070496,,0,,
59727,8.566984863,-8.24440567,1.261426849,984.5067596,160.0940552,,0,,
59795,10.17149826,-10.70453979,1.075812836,984.5067596,157.2626495,,0,,
59861,5.343288574,-6.056854706,0.079185333,984.5067596,150.9994049,,-0.000915527,,
59928,3.057541809,-5.6866745,0.318687286,984.5058441,146.0036163,,0,,
59995,5.773044891,-9.10331955,0.481548615,984.5058441,146.0036163,,0,,
60062,7.459737396,-10.13392639,0.12289444,984.5058441,147.5613098,,0,,
60127,7.018904114,-5.950725403,1.625020752,984.5058441,151.0640106,,0,,
60195,4.986580353,-6.842121735,1.912273407,984.5058441,154.2634583,,0,,
60262,4.981341248,-7.914940796,3.508254547,984.5058441,161.5005188,,0,,
60327,6.457571411,-8.319998474,4.73884552,984.5058441,169.2285919,,0,,
60395,2.444865875,-5.879473572,5.204227753,984.5058441,173.3139496,,0,,
60463,2.6104216,-6.386020203,5.722300415,984.5058441,178.5427551,,0,,
60528,2.747087402,-6.652765503,5.341941376,984.5058441,180.7113953,,0,,
60595,2.4923172,-6.523135071,5.330714722,984.5058441,182.0529022,,0,,
60662,2.494562531,-7.016509094,5.908812561,984.5058441,182.0529022,,0,,
60727,3.925736389,-6.809639282,8.40936264,984.5058441,182.0529022,,0,,
60795,3.259322205,-7.434889069,7.258406067,984.5058441,182.0529022,,-0.000991821,,
60862,8.165819092,-14.98099686,4.557572479,984.5048523,180.5560303,,0,,
60928,2.887495422,-3.498225403,0.635877686,984.5048523,169.1359253,,0,,
60995,5.723198547,-9.084907837,0.985999603,984.5048523,159.9371338,,0,,
61062,8.162226563,-5.382656708,-0.316441956,984.5048523,151.2843475,,0,,
61128,3.344644775,-3.069217529,1.008303223,984.5048523,154.3656616,,0,,
61195,7.613467712,-7.567513275,0.49726593,984.5048523,156.2279968,,0,,
61262,10.01761826,-8.484207001,0.816102905,984.5048523,152.315506,,0,,
61328,5.801036682,-5.260510712,1.850302277,984.5048523,156.3959351,,0,,
61395,6.937922516,-6.346801758,1.8194664,984.5048523,157.5835266,,0,,
61463,7.619904327,-7.993377686,1.518442383,984.5048523,156.2738037,,0,,
61527,6.213578796,-6.451134796,1.830842743,984.5048523,154.6934967,,0,,
61595,6.757098541,-7.131769409,1.244512024,984.5048523,153.3760223,,0,,
61662,6.840624847,-6.685547333,1.539398804,984.5048523,153.3760223,,0,,
61728,7.398514709,-6.615493011,1.515598297,984.5048523,153.3760223,,-0.000228882,,
61795,7.335346069,-6.220913544,2.569855957,984.5046234,154.4234009,,0,,
61862,6.668632507,-6.578669586,1.667232971,984.5046234,153.3666687,,0,,
61928,6.922504578,-6.310726776,1.656006317,984.5046234,152.1365814,,0,,
61995,6.734944611,-5.970634003,1.404229889,984.5046234,151.0225372,,0,,
62062,7.554190979,-6.448590088,1.626667328,984.5046234,152.0904541,,0,,
62128,6.925797729,-6.136788483,1.566642151,984.5046234,153.1887665,,0,,
62195,7.669002228,-7.833061066,1.966610413,984.5046234,153.1887665,,0,,
62262,9.755662994,-9.825118561,2.20087326,984.5046234,153.1887665,,0,,
62327,11.17022141,-11.75625275,2.054028625,984.5046234,153.1887665,,0,,
62395,5.478457489,-7.083569641,0.404309235,984.5046234,149.8190308,,0,,
62462,3.790567474,-6.30788269,0.598754883,984.5046234,139.7812653,,0,,
62527,3.848197632,-6.004014587,0.738115082,984.5046234,133.1404572,,0,,
62595,2.745141449,-5.387297058,0.235759735,984.5046234,139.4275665,,0,,
62662,6.195915527,-7.733069,0.245938568,984.5046234,143.8526611,,-0.004043579,,
62728,7.004234619,-8.770860901,0.535436554,984.5005798,147.1540222,,0,,
62795,5.951773224,-7.645800476,1.137933655,984.5005798,148.5576324,,0,,
62863,5.406157837,-6.447242889,1.17595459,984.5005798,148.5576324,,0,,
62927,5.463638306,-7.037315826,1.063238983,984.5005798,148.5576324,,0,,
62995,5.422773285,-6.867868195,0.939745789,984.5005798,148.5576324,,0,,
63063,7.405550079,-8.801547089,1.978735199,984.5005798,147.3759308,,0,,
63127,4.762047272,-5.307662659,1.279090118,984.5005798,148.559494,,0,,
63195,8.704099731,-9.477990417,1.360520782,984.5005798,148.559494,,0,,
63262,6.859335938,-6.554420013,1.968406677,984.5005798,150.0598145,,0,,
63328,5.355263672,-7.779322815,2.559527435,984.5005798,154.3800812,,0,,
63395,5.81645462,-7.283254395,3.923940125,984.5005798,161.1068878,,0,,
63463,3.706741791,-7.061864777,5.02205658,984.5005798,167.0864563,,0,,
63528,3.516337738,-6.451733551,5.258864136,984.5005798,170.8047028,,0,,
63595,6.29620697,-9.427245941,3.845802612,984.5005798,174.0730743,,0,,
63662,1.745669861,-5.830076294,7.088808746,984.5005798,176.8173218,,-0.005111694,,
63728,2.597847748,-6.568041687,5.781726837,984.4954681,177.9978333,,0,,
63795,2.303410034,-6.361022186,4.901557159,984.4954681,177.9978333,,0,,
63862,2.898871765,-6.826105042,8.605604553,984.4954681,176.9656372,,0,,
63928,7.298822021,-9.835447083,4.466561737,984.4954681,174.3424988,,0,,
63995,3.163671112,-9.039701843,3.105142822,984.4954681,168.5081177,,0,,
64063,4.891228638,-5.484295349,0.95710968,984.4954681,162.4799652,,0,,
64127,6.942413177,-8.143066406,1.188378754,984.4954681,149.6694183,,0,,
64195,4.297862549,-3.28446991,0.854423218,984.4954681,146.0063477,,0,,
64262,7.242539063,-7.188202057,0.574205933,984.4954681,149.1892853,,0,,
64327,8.633296967,-8.67146759,0.216749268,984.4954681,143.9877472,,0,,
64395,6.140081635,-6.154152374,2.736609192,984.4954681,146.5289001,,0,,
64462,5.966442719,-5.475314026,1.574725342,984.4954681,148.6961823,,0,,
64527,6.733298035,-6.062842255,1.966161346,984.4954681,151.1615295,,0,,
64595,7.601342926,-7.213499451,2.359692993,984.4954681,152.3238983,,-0.006256104,,
64662,6.730753326,-6.197562103,2.291135559,984.489212,153.3718262,,0,,
64727,6.616540833,-6.221063232,2.083367615,984.489212,154.6909485,,0,,
64795,6.965914307,-6.529272308,2.216291199,984.489212,154.6909485,,0,,
64861,6.763535156,-6.544839935,2.077230377,984.489212,154.6909485,,0,,
64928,6.937024384,-6.741830292,2.211052094,984.489212,154.6909485,,0,,
64995,6.836283875,-6.518794098,2.236499176,984.489212,153.6320496,,0,,
65062,6.850055237,-6.69168457,2.128723297,984.489212,153.6320496,,0,,
65127,6.896159363,-6.643035736,2.111060028,984.489212,154.7051849,,0,,
65195,7.104076996,-6.422394562,2.158211975,984.489212,156.027359,,0,,
65262,7.08252182,-5.733826447,2.199526062,984.489212,156.027359,,0,,
65328,7.41363327,-6.59932663,2.230511627,984.489212,156.027359,,0,,
65395,8.302335205,-7.873626709,2.53437973,984.489212,156.027359,,0,,
65462,10.61637314,-10.2704425,2.544259186,984.489212,156.027359,,0,,
65527,10.74615326,-13.4568663,1.589394836,984.489212,152.9896698,,-0.015029907,,
65595,2.966830444,-4.805307312,0.104482727,984.4741821,141.7146759,,0,,
65663,2.58826767,-2.75202713,0.790356445,984.4741821,131.5565796,,0,,
65727,2.936144257,-5.354515228,1.001866608,984.4741821,130.9451752,,0,,
65795,6.121220856,-8.037236481,0.516575775,984.4741821,136.6941071,,0,,
65863,8.044571228,-9.851463776,1.089883575,984.4741821,139.978302,,0,,
65928,5.35436554,-5.672304382,1.569635925,984.4741821,145.6686249,,0,,
65995,5.527256012,-5.600753174,1.529219971,984.4741821,151.3603058,,0,,
66063,6.513704681,-7.695048065,1.755848694,984.4741821,152.5921021,,0,,
66128,7.110214233,-7.708669739,2.934497681,984.4741821,152.5921021,,0,,
66195,6.630312195,-7.455995178,2.368824005,984.4741821,152.5921021,,0,,
66264,5.058430939,-7.256160736,2.590962067,984.4741821,154.1792297,,0,,
66328,6.245462494,-6.646478577,4.025578766,984.4741821,157.1178741,,0,,
66395,5.567073212,-7.484136658,3.799399109,984.4741821,160.1380615,,0,,
66463,5.077890472,-7.047644348,4.443210297,984.4741821,163.1443329,,-0.015563965,,
66528,4.239334259,-6.703210602,5.653443604,984.4586182,168.8442688,,0,,
66595,3.977977753,-6.551426239,5.796845398,984.4586182,173.020462,,0,,
66662,3.461252289,-6.713838501,6.147566071,984.4586182,175.3625793,,0,,
66727,3.284170532,-6.221063232,6.054309998,984.4586182,177.6669159,,0,,
66795,2.271077271,-6.009852448,6.103108521,984.4586182,180.471756,,0,,
66863,2.422861633,-6.032006378,6.490053864,984.4586182,180.471756,,0,,
66928,2.63152771,-6.725813599,7.262597351,984.4586182,180.471756,,0,,
66995,3.796555023,-6.932683411,7.928113403,984.4586182,179.3490143,,0,,
67062,5.776787109,-9.797426147,8.713829498,984.4586182,178.017334,,0,,
67128,6.670279083,-9.183253326,3.678450623,984.4586182,171.7525787,,0,,
67195,4.455185394,-5.336253204,0.038020935,984.4586182,155.9608002,,0,,
67263,6.20968689,-7.6043367,-1.443148956,984.4586182,149.7408752,,0,,
67328,2.844385071,-2.907853088,-0.331710205,984.4586182,145.1246948,,0,,
67395,4.990621948,-5.245392151,-0.00703537,984.4586182,143.5576172,,-0.012283325,,
67463,9.435179443,-10.96275284,0.982107697,984.4463348,142.4474792,,0,,
67527,8.004304962,-8.478069763,1.797611847,984.4463348,143.0746155,,0,,
67595,5.573210449,-5.58952652,1.722767487,984.4463348,150.2410126,,0,,
67662,6.344855804,-5.774541779,0.564326477,984.4463348,154.7045746,,0,,
67728,7.197782135,-6.305038605,1.479373627,984.4463348,157.5206146,,0,,
67795,7.825426941,-6.529272308,1.429976349,984.4463348,157.5206146,,0,,
67863,6.897506561,-6.669979706,0.746946716,984.4463348,154.952301,,0,,
67928,7.143744507,-7.502698059,1.326541443,984.4463348,150.5146332,,0,,
67995,6.296506348,-6.888375549,1.328786774,984.4463348,148.1020813,,0,,
68063,6.165079651,-6.09382782,1.261277161,984.4463348,146.3807373,,0,,
68128,6.972650299,-6.401887207,1.402583313,984.4463348,148.0311737,,0,,
68195,6.827751617,-6.45188324,1.522633667,984.4463348,152.7773895,,0,,
68263,7.702233124,-7.312593384,1.755549316,984.4463348,155.8780975,,0,,
68328,7.910300446,-7.922574921,1.755249939,984.4463348,155.8780975,,-0.017166138,,
68395,11.33862122,-10.6235582,1.871558075,984.4291687,153.0623169,,0,,
68462,8.554560699,-12.00683167,0.055684204,984.4291687,145.4018707,,0,,
68528,3.046315155,-5.603746948,-0.924627228,984.4291687,133.5177155,,0,,
68595,2.268981628,-6.576124878,1.077010345,984.4291687,127.9494705,,0,,
68662,3.972588959,-5.671855316,0.212258606,984.4291687,134.9858856,,0,,
68728,4.467609558,-5.786516876,0.039068756,984.4291687,138.4716644,,0,,
68795,7.682324524,-8.649613037,1.7796492,984.4291687,143.4476929,,0,,
68863,5.983058167,-7.022346954,1.138083344,984.4291687,146.8756561,,0,,
68927,6.098168793,-6.5864534,1.088835754,984.4291687,146.8756561,,0,,
68995,5.453609161,-7.650740204,1.513652344,984.4291687,147.9910126,,0,,
69063,6.452631683,-7.429949341,1.754651184,984.4291687,147.9910126,,0,,
69127,7.001390533,-7.616910553,1.80075531,984.4291687,147.9910126,,0,,
69195,6.388564911,-7.386689301,2.372566223,984.4291687,149.2227631,,0,,
69262,6.251450043,-7.230264587,2.788251801,984.4291687,150.5309601,,-0.015335083,,
69327,6.066434784,-7.135511627,3.280428314,984.4138336,154.59198,,0,,
69395,5.537285156,-7.093449097,5.118306427,984.4138336,162.2111969,,0,,
69462,4.17601593,-7.048392792,5.778583374,984.4138336,169.9956207,,0,,
69527,2.977158966,-8.038134613,5.35780838,984.4138336,176.5302887,,0,,
69595,2.135608978,-6.491550751,7.397017822,984.4138336,177.9070587,,0,,
69663,1.291214905,-2.968926086,5.632936249,984.4138336,177.9070587,,0,,
69727,0.930914154,-4.987777863,5.842051392,984.4138336,180.4055939,,0,,
69795,3.235222321,-8.619525604,6.403384094,984.4138336,180.4055939,,0,,
69861,0.473465424,-5.57306076,6.509812775,984.4138336,178.0015717,,0,,
69927,5.773344269,-9.46481781,7.106322327,984.4138336,174.6379547,,0,,
69995,5.55090683,-11.79352524,4.157005463,984.4138336,173.4271545,,0,,
70063,4.237537994,-4.301754456,2.326911163,984.4138336,170.8551331,,0,,
70127,4.732708282,-9.526339874,2.121987305,984.4138336,166.8416901,,0,,
70195,5.313201141,-5.472769318,2.12842392,984.4138336,159.0630188,,0,,
70263,6.391408997,-5.846991119,1.437311096,984.4138336,147.960434,,-0.011444092,,
70327,7.194189606,-7.364086304,0.707428894,984.4023895,146.391983,,0,,
70395,7.472011871,-6.886878662,0.120050354,984.4023895,149.5690613,,0,,
70462,7.654632111,-6.91876236,0.938099213,984.4023895,149.5690613,,0,,
70527,6.475833435,-6.412664795,1.602417755,984.4023895,149.5690613,,0,,
70595,6.077062683,-6.316714325,1.40288269,984.4023895,148.5313568,,0,,
70662,6.276897125,-6.876400452,1.21217926,984.4023895,145.5238647,,0,,
70727,6.850953369,-7.263196106,1.703457642,984.4023895,145.5238647,,0,,
70795,6.936425629,-7.008725281,2.322719879,984.4023895,149.3733521,,0,,
70863,6.561754761,-6.529871063,2.270777893,984.4023895,151.8190155,,0,,
70927,6.804998932,-6.348747711,1.962718506,984.4023895,151.8190155,,0,,
70994,7.012467499,-6.297254791,2.19279007,984.4023895,151.8190155,,0,,
71062,6.888824615,-6.473288727,2.192041626,984.4023895,151.8190155,,0,,
71128,6.794969788,-6.460415497,1.982477417,984.4023895,151.8190155,,0,,
71195,6.586902466,-6.3979953,1.959125977,984.4023895,151.8190155,,-0.012512207,,
71263,7.93320282,-7.859406281,2.510429535,984.3898773,151.8190155,,0,,
71327,9.660910034,-10.12329849,2.669548645,984.3898773,151.8190155,,0,,
71395,10.18317398,-10.54811508,1.440604248,984.3898773,151.8190155,,0,,
71463,4.480033722,-6.528523865,0.392334137,984.3898773,146.043808,,0,,
71528,4.127666473,-7.243586884,0.605191498,984.3898773,136.3579254,,0,,
71595,2.480791168,-6.384972382,0.939895477,984.3898773,137.3112183,,0,,
71662,3.667373657,-4.920567627,0.169896698,984.3898773,143.9324951,,0,,
71727,7.351063385,-8.506660309,1.396745453,984.3898773,147.8926697,,0,,
71794,6.998097382,-7.360493774,2.04878952,984.3898773,150.5202332,,0,,
71863,5.856720886,-6.794371033,2.284399567,984.3898773,152.2300568,,0,,
71927,5.878575439,-6.706653442,1.741478577,984.3898773,151.1865387,,0,,
71995,6.304739227,-7.32352066,2.031425629,984.3898773,151.1865387,,0,,
72062,5.948031006,-6.782845001,2.559677124,984.3898773,150.1514893,,0,,
72127,4.803511047,-6.570586395,2.295326843,984.3898773,150.1514893,,-0.011749268,,
72195,5.265001373,-7.043303375,3.00125885,984.3781281,150.1514893,,0,,
72263,6.195167084,-6.939868469,3.729494476,984.3781281,151.5592194,,0,,
72328,7.406747589,-6.71159317,4.753664703,984.3781281,152.9102783,,0,,
72395,6.816375275,-8.389004974,4.070036316,984.3781281,155.4834442,,0,,
72462,7.137906647,-10.43330383,1.681603088,984.3781281,153.5144043,,0,,
72528,5.768853607,-5.287903748,1.626817017,984.3781281,153.5144043,,0,,
72595,5.350174255,-5.310656433,1.189127197,984.3781281,152.1981964,,0,,
72662,7.641160126,-8.130043488,1.66498764,984.3781281,147.8227997,,0,,
72727,7.867040405,-7.362290039,2.282752991,984.3781281,144.3240051,,0,,
72795,5.485792236,-5.603896637,1.455124054,984.3781281,144.3240051,,0,,
72862,6.177204437,-5.574707336,1.817520447,984.3781281,145.7324829,,0,,
72927,7.00767746,-6.418203278,2.150128784,984.3781281,148.6758423,,0,,
72995,6.939120026,-6.334078217,1.94939621,984.3781281,153.2628479,,0,,
73062,6.890770569,-6.352040863,2.59994339,984.3781281,156.6295929,,-0.009460449,,
73128,7.763156433,-7.064858551,3.023562469,984.3686676,155.5996094,,0,,
73195,8.818012848,-8.485554199,2.218985596,984.3686676,146.1773529,,0,,
73262,8.553213501,-8.726253662,1.883533173,984.3686676,147.9715881,,0,,
73328,3.756737823,-5.200784912,-0.288150787,984.3686676,145.5296326,,0,,
73395,5.578449554,-6.979086914,-0.781524811,984.3686676,133.1205292,,0,,
73463,7.627538452,-13.38756042,1.048569489,984.3686676,125.3316422,,0,,
73527,3.729494476,-5.146447906,1.582060089,984.3686676,131.1539612,,0,,
73595,6.599027252,-6.300697632,3.880680084,984.3686676,137.2677155,,0,,
73662,5.320236511,-5.812562714,3.15693512,984.3686676,137.2677155,,0,,
73727,7.203769684,-7.419022064,3.294199677,984.3686676,134.3609619,,0,,
73795,7.65118927,-7.466922455,2.950813751,984.3686676,134.3609619,,0,,
73862,8.902886353,-9.305549011,3.721411285,984.3686676,136.5157318,,0,,
73928,4.405937805,-7.442223816,-0.685873718,984.3686676,129.8515778,,0,,
73995,5.109474792,-4.420008545,-0.314196625,984.3686676,125.8323135,,-0.005645752,,
74062,7.685018921,-8.303832092,2.053729248,984.3630219,122.3271484,,0,,
74128,8.386609955,-7.634424133,1.728455658,984.3630219,119.7739944,,0,,
74195,5.202581177,-4.703219604,0.766855316,984.3630219,123.3229446,,0,,
74262,6.92340271,-5.413043518,1.295106812,984.3630219,124.3342972,,0,,
74328,7.634424133,-6.49394577,2.474504242,984.3630219,127.7069168,,0,,
74395,6.415059814,-5.477409668,3.881877594,984.3630219,131.2071533,,0,,
74462,8.72296051,-7.807913361,1.163829803,984.3630219,123.0796127,,0,,
74527,7.434440002,-8.771160278,1.682501221,984.3630219,119.4941254,,0,,
74595,8.619226227,-9.09628418,1.69432663,984.3630219,119.4941254,,0,,
74663,2.943778381,-4.359833679,-0.173938293,984.3630219,113.4127808,,0,,
74727,5.457950134,-6.796915741,0.283660126,984.3630219,97.80957031,,0,,
74795,5.824837189,-11.78409485,1.276246033,984.3630219,93.08273315,,0,,
74861,4.443809052,-4.434079285,1.594184875,984.3630219,98.86004639,,0,,
74927,5.888754272,-6.181695099,3.193758545,984.3630219,100.5781479,,-0.002288818,,
74995,5.300028534,-6.241570587,3.463647308,984.360733,98.97745514,,0,,
75062,8.306077423,-7.558382263,2.833457794,984.360733,96.20374298,,0,,
75128,9.285191345,-7.625592499,6.245013428,984.360733,97.94142914,,0,,
75195,7.418273621,-9.712402954,2.397863617,984.360733,99.66503906,,0,,
75262,6.547983398,-7.004833374,0.132624207,984.360733,90.79412842,,0,,
75327,4.979245605,-5.194497986,1.54104538,984.360733,85.32787323,,0,,
75395,8.306376801,-8.349337463,0.797092438,984.360733,85.32787323,,0,,
75462,4.801265717,-4.423900452,-0.933159485,984.360733,81.51066589,,0,,
75527,6.566395111,-5.547314301,0.607586517,984.360733,75.93680573,,0,,
75595,6.60276947,-6.464457092,1.437610474,984.360733,75.93680573,,0,,
75663,6.903194733,-6.684798889,1.770518188,984.360733,80.11303711,,0,,
75728,7.576793976,-7.515720978,2.551893311,984.360733,85.85768127,,0,,
75795,10.38974442,-7.832911377,1.616787872,984.360733,69.20096588,,0,,
75862,8.433163147,-8.466992798,1.467099152,984.360733,64.06884766,,0,,
75928,4.38782547,-6.062842255,0.671802979,984.360733,61.49063492,,0,,
75995,5.326074371,-8.684191132,-0.614472198,984.360733,56.37244034,,0,,
76063,8.313112793,-9.991273041,1.863774261,984.360733,50.39435577,,0,,
76128,3.391347656,-5.025948486,2.59754837,984.360733,54.88051987,,0,,
76195,3.83442627,-6.192772064,2.703078918,984.360733,54.88051987,,0,,
76262,5.92527832,-6.141877899,3.58399704,984.360733,49.86285782,,0,,
76327,8.458909607,-7.424859924,3.342998199,984.360733,48.54822159,,0,,
76395,8.496631165,-7.961344299,5.945486298,984.360733,48.54822159,,0,,
76463,6.606960754,-9.749525757,-0.701740723,984.360733,45.94072723,,0,,
76528,5.199288025,-5.016218719,0.546812897,984.360733,40.9990654,,0,,
76595,7.545808411,-7.825277252,2.36478241,984.360733,40.9990654,,0,,
76662,6.625222778,-6.571933594,-0.463585968,984.360733,31.91026878,,0,,
76728,5.624403992,-5.913003845,0.104632416,984.360733,26.36879349,,0,,
76795,5.517825623,-5.293142853,1.572779388,984.360733,24.76309204,,0,,
76863,6.840026093,-6.665489044,1.88622757,984.360733,26.94848824,,0.000610352,,
76928,7.400610352,-7.015610962,1.946103058,984.3613434,35.57748413,,0,,
76995,10.3593576,-6.421646118,-0.160017242,984.3613434,32.89143753,,0,,
77063,8.135881348,-9.035510559,2.642754364,984.3613434,23.73906898,,0,,
77128,6.098168793,-7.211703186,1.186133423,984.3613434,22.46788979,,0,,
77195,3.699407043,-6.377637634,-0.790805511,984.3613434,17.25043678,,0,,
77262,8.055199127,-12.31548981,1.976789246,984.3613434,11.09352875,,0,,
77327,5.367538147,-5.483696594,1.698517914,984.3613434,17.45702362,,0,,
77395,3.69746109,-5.822591858,1.745520172,984.3613434,17.45702362,,0,,
77462,4.194876709,-5.431006165,3.034639435,984.3613434,18.76567841,,0,,
77528,7.169191589,-7.600145416,3.894301758,984.3613434,17.60429764,,0,,
77595,12.52295837,-7.617060242,7.106621704,984.3613434,17.60429764,,0,,
77662,6.836134186,-8.336464233,0.3662883,984.3613434,16.58008194,,0,,
77727,4.384682007,-8.293802948,-0.681532745,984.3613434,7.627001286,,0,,
77795,5.540278931,-6.652466125,0.433947601,984.3613434,6.421873569,,0.001068115,,
77862,9.24253006,-8.705297241,1.640139313,984.3624115,3.850026608,,0,,
77928,5.30990799,-4.920567627,0.278421021,984.3624115,3.850026608,,0,,
77995,6.392905884,-5.741310883,1.059197388,984.3624115,3.850026608,,0,,
78062,7.180118866,-6.35353775,3.155887299,984.3624115,6.766542912,,0,,
78128,6.416407013,-6.529272308,3.835025024,984.3624115,4.12121439,,0,,
78195,8.385262756,-7.200476532,1.796564026,984.3624115,1.970849991,,0,,
78262,8.502768402,-8.737779694,1.457219696,984.3624115,0.72324276,,0,,
78328,7.087910614,-7.837402039,0.321681061,984.3624115,358.1472778,,0,,
78395,3.658242645,-4.838238831,0.148940277,984.3624115,352.5709839,,0,,
78461,6.92924057,-8.214916992,-0.195792847,984.3624115,338.7923279,,0,,
78528,5.615722046,-8.219707031,1.095571747,984.3624115,334.482666,,0,,
78595,3.898343353,-4.812492371,1.755848694,984.3624115,338.0481873,,0,,
78661,7.106472015,-5.298381958,2.791395264,984.3624115,339.1774597,,0,,
78727,6.768025818,-6.197562103,3.279979248,984.3624115,339.1774597,,0,,
78795,7.83485733,-6.219716034,3.740571442,984.3624115,341.7887878,,0,,
78862,8.185278625,-7.224875793,6.948700104,984.3624115,345.120575,,0,,
78928,6.522985382,-9.729467468,1.240620117,984.3624115,345.120575,,0,,
78995,7.258855133,-9.8989151,-1.021326141,984.3624115,335.7619019,,0,,
79062,4.820874939,-3.674708405,0.335751801,984.3624115,335.7619019,,0,,
79128,9.059161377,-8.316705322,1.574425964,984.3624115,335.7619019,,0,,
79194,7.205715637,-6.706803131,0.430654449,984.3624115,334.0281067,,0,,
79261,6.503825226,-5.651946716,1.805994415,984.3624115,335.9098206,,0,,
79328,7.913743286,-6.673572235,1.46500351,984.3624115,339.246582,,0,,
79395,7.278464355,-6.2201651,1.735491028,984.3624115,343.4870605,,0,,
79461,6.323749695,-6.067781982,2.793790283,984.3624115,343.4870605,,0,,
79528,6.929989014,-6.317163391,2.405797119,984.3624115,340.1054688,,0,,
79595,7.57394989,-6.399791565,1.533710632,984.3624115,337.2160034,,0,,
79662,8.816066895,-8.325237579,1.826651459,984.3624115,337.2160034,,-0.002365112,,
79727,11.00496506,-11.07621689,1.182540894,984.3600464,334.5107727,,0,,
79795,6.631659393,-9.180409241,0.03397934,984.3600464,328.7295532,,0,,
79861,2.569855957,-6.260581055,-0.260009308,984.3600464,318.710083,,0,,
79928,4.542154541,-6.777306519,1.748813324,984.3600464,308.5479736,,0,,
79995,3.65764389,-5.152585144,0.213156738,984.3600464,319.1069031,,0,,
80063,5.227878571,-6.299200745,0.263751526,984.3600464,324.7361145,,0,,
80127,6.693929901,-8.084238739,0.421822815,984.3600464,329.4779053,,0,,
80195,6.874155121,-8.555009766,1.254541168,984.3600464,331.3894958,,0,,
80263,5.481002197,-6.368506622,2.745141449,984.3600464,335.0140381,,0,,
80327,6.114035797,-6.738986206,1.062640228,984.3600464,335.0140381,,0,,
80395,6.063740387,-8.824000397,1.589694214,984.3600464,337.0411682,,0,,
80462,4.572840729,-7.417076111,4.694088593,984.3600464,343.2406616,,0,,
80527,3.340303802,-6.658004608,6.420149231,984.3600464,352.9187927,,0,,
80595,3.208128662,-6.89885376,5.302124176,984.3600464,355.9060669,,-0.000534058,,
80662,3.282374268,-7.0310289,5.576353912,984.3595123,358.556488,,0,,
80728,2.958896942,-7.282056885,6.055956573,984.3595123,0.824573994,,0,,
80795,2.561772766,-6.794969788,5.403762817,984.3595123,2.238094807,,0,,
80862,2.27811264,-6.45188324,5.523364105,984.3595123,3.413354397,,0,,
80928,2.010319519,-6.731950836,6.201903076,984.3595123,3.413354397,,0,,
80995,2.722089386,-6.533912659,7.610324249,984.3595123,3.413354397,,0,,
81063,3.733536072,-7.874973907,9.047635345,984.3595123,2.165657043,,0,,
81128,10.31759445,-17.30715958,7.784412231,984.3595123,356.370575,,0,,
81195,3.158731384,-3.454965363,2.541864166,984.3595123,345.2136536,,0,,
81262,6.404282227,-6.790928192,1.263522491,984.3595123,338.0823669,,0,,
81328,4.562961273,-5.628445587,-0.047900391,984.3595123,329.4846802,,0,,
81395,3.66467926,-4.017196198,0.660426636,984.3595123,326.0108643,,0,,
81462,9.30450119,-9.040001221,0.419278107,984.3595123,326.0108643,,0,,
81527,9.645192719,-9.371412048,-0.006735992,984.3595123,328.4371643,,-0.002746582,,
81595,6.559210052,-6.36296814,3.022814026,984.3567657,336.8323669,,0,,
81663,5.275479584,-4.636308746,1.845512238,984.3567657,342.2073975,,0,,
81728,6.056555328,-5.971831512,3.960464172,984.3567657,346.0619812,,0,,
81795,7.267537079,-6.580016785,1.816322937,984.3567657,341.0455322,,0,,
81862,8.390202484,-8.304281158,1.927541656,984.3567657,337.5527649,,0,,
81928,6.505172424,-6.497238922,2.05118454,984.3567657,333.7141418,,0,,
81995,5.707032166,-6.042035522,1.551373901,984.3567657,332.4509583,,0,,
82062,6.302793274,-6.870412903,1.507515106,984.3567657,332.4509583,,0,,
82128,6.716383209,-6.940766602,1.820065155,984.3567657,332.4509583,,0,,
82195,7.322023773,-7.037615204,1.950593719,984.3567657,335.3818359,,0,,
82262,7.096293182,-6.411317596,2.705473938,984.3567657,336.5780334,,0,,
82328,8.289761353,-8.473130035,2.321672058,984.3567657,337.9241943,,0,,
82395,10.25487488,-9.58187439,1.846859436,984.3567657,337.9241943,,0,,
82462,8.659043427,-12.23450821,-0.148042145,984.3567657,332.3950195,,-0.003128052,,
82528,2.598895569,-7.089108124,0.10642868,984.3536377,310.9279175,,0,,
82595,3.254831543,-6.956334229,1.918111267,984.3536377,303.1566467,,0,,
82662,3.776496735,-5.105433197,0.258512421,984.3536377,310.4554138,,0,,
82728,4.22870636,-4.808151398,-0.105231171,984.3536377,318.2089844,,0,,
82795,7.373217316,-8.280780029,0.875379639,984.3536377,323.698822,,0,,
82862,7.647896118,-8.60949646,1.314716034,984.3536377,326.3777161,,0,,
82927,5.391338654,-6.334676971,2.515069885,984.3536377,331.1973877,,0,,
82995,5.75687851,-5.484894104,3.18851944,984.3536377,334.1802063,,0,,
83063,6.306984558,-7.766599274,2.328108673,984.3536377,334.1802063,,0,,
83128,6.782246246,-8.143365784,3.069067841,984.3536377,335.6259155,,0,,
83195,5.228028259,-7.221133575,3.852538605,984.3536377,341.1125183,,0,,
83262,3.687132568,-6.033353577,5.648653564,984.3536377,346.7781677,,0,,
83328,3.605252838,-7.074139252,5.491929474,984.3536377,352.510437,,0,,
83394,3.562142487,-6.868766327,5.288352814,984.3536377,353.690033,,0,,
83463,3.472928009,-6.893614655,5.886359253,984.3536377,356.2790833,,-0.00038147,,
83528,3.112327881,-6.588998108,5.852529602,984.3532562,357.8345947,,0,,
83595,3.179388428,-6.789730682,6.001769257,984.3532562,359.0900269,,0,,
83663,3.028801575,-6.848708038,5.606591034,984.3532562,359.0900269,,0,,
83728,3.066672821,-7.115004272,5.87737793,984.3532562,0.196870327,,0,,
83795,2.710713043,-6.806046753,6.315666504,984.3532562,0.196870327,,0,,
83863,3.651506653,-8.202043762,7.418123932,984.3532562,0.196870327,,0,,
83928,10.17074982,-14.05128021,10.15114059,984.3532562,358.4986877,,0,,
83994,3.337310028,-5.176235962,1.966760101,984.3532562,350.8529053,,0,,
84062,5.652994537,-7.451504517,1.946402435,984.3532562,341.3230286,,0,,
84127,6.683152313,-7.608527985,0.205821991,984.3532562,328.688446,,0,,
84194,3.873045959,-3.014880524,0.526455231,984.3532562,323.7549133,,0,,
84263,7.303162994,-6.538702698,-0.21061203,984.3532562,324.9391785,,0,,
84328,9.600435791,-9.741741943,-0.33814682,984.3532562,323.7904663,,0,,
84394,7.00408493,-6.55367157,2.569706268,984.3532562,328.2388306,,-0.001296997,,
84463,5.673651581,-5.17294281,1.841021576,984.3519592,333.119812,,0,,
84528,6.394851837,-5.199587402,1.235680389,984.3519592,339.4539185,,0,,
84594,8.191565552,-7.25107132,2.22317688,984.3519592,342.2393494,,0,,
84663,6.496191101,-6.71982605,2.406096497,984.3519592,342.2393494,,0,,
84728,6.882088623,-6.468049622,1.806144104,984.3519592,340.862854,,0,,
84794,6.640940094,-5.90536972,1.619631958,984.3519592,338.2113342,,0,,
84862,6.81218399,-6.423143005,1.563648376,984.3519592,333.4441833,,0,,
84927,7.282356262,-7.456593933,1.864373016,984.3519592,330.3078003,,0,,
84994,8.932824097,-9.377549286,1.845961304,984.3519592,327.776062,,0,,
85063,10.77698914,-11.411819,1.271455994,984.3519592,325.6129456,,0,,
85128,5.416636047,-8.205187225,0.294437714,984.3519592,319.8189697,,0,,
85195,3.348237305,-4.894671478,0.157771912,984.3519592,307.0380554,,0,,
85262,3.43655365,-5.878276062,1.058748322,984.3519592,306.6248474,,0,,
85328,4.539609833,-6.375092926,-0.177231445,984.3519592,311.3937683,,-0.007247925,,
85394,6.952891388,-8.088430023,1.017434235,984.3447113,318.2750854,,0,,
85463,7.375312958,-7.33639389,1.296004944,984.3447113,325.4859314,,0,,
85528,6.820716248,-7.450756073,4.094435577,984.3447113,331.7682495,,0,,
85594,4.287084961,-6.605763245,3.924089813,984.3447113,337.5354614,,0,,
85663,4.837789764,-7.205116882,3.734733582,984.3447113,342.4410706,,0,,
85728,5.037025452,-7.628137207,6.236032104,984.3447113,348.0197754,,0,,
85794,2.26763443,-6.059399414,5.717809753,984.3447113,355.270813,,0,,
85862,1.888023834,-6.64019165,5.920787659,984.3447113,359.9573059,,0,,
85928,2.200274506,-5.925577698,5.992488556,984.3447113,359.9573059,,0,,
85994,2.554587708,-6.283782806,6.636299744,984.3447113,359.9573059,,0,,
86062,1.992207184,-5.888454895,7.178771667,984.3447113,359.9573059,,0,,
86128,2.140249329,-6.292315063,8.621621246,984.3447113,359.9573059,,0,,
86195,9.731114044,-16.03390732,8.896300049,984.3447113,357.4400024,,0,,
86262,3.24929306,-5.248385925,2.971919861,984.3447113,353.412323,,-0.008468628,,
86328,5.223836975,-6.184239807,2.590962067,984.3362427,346.2757568,,0,,
86395,6.672674103,-10.9844577,0.389040985,984.3362427,332.9824829,,0,,
86462,5.954317932,-3.502566376,-1.153950348,984.3362427,329.7139282,,0,,
86528,3.805835724,-2.514321442,0.290695496,984.3362427,334.9291382,,0,,
86594,8.04906189,-7.452402649,0.207917633,984.3362427,331.5137939,,0,,
86662,10.12928604,-11.49564468,1.40527771,984.3362427,329.0589905,,0,,
86728,6.534212036,-6.059549103,2.019749908,984.3362427,333.0927734,,0,,
86794,5.476361847,-4.676275635,0.895587616,984.3362427,341.5401001,,0,,
86862,6.334078217,-5.817203064,0.391585693,984.3362427,341.5401001,,0,,
86927,7.08955719,-6.921606445,1.302890625,984.3362427,338.0452576,,0,,
86994,9.16648819,-9.255253601,1.804347839,984.3362427,335.178833,,0,,
87062,7.671546936,-7.3774086,1.517993317,984.3362427,335.178833,,0,,
87128,4.154760132,-3.523971863,0.333955536,984.3362427,335.178833,,0,,
87194,7.625891876,-7.316485291,1.732796631,984.3362427,335.178833,,-0.005645752,,
87262,12.7946434,-13.0109436,1.922302551,984.3305969,332.1636658,,0,,
87328,7.806566162,-10.32867142,0.258362732,984.3305969,329.3815918,,0,,
87394,2.458936615,-5.125940552,-1.063987427,984.3305969,317.7066345,,0,,
87462,2.093396759,-4.871469727,0.455053711,984.3305969,311.8569641,,0,,
87528,2.819536743,-5.285808105,0.161813507,984.3305969,315.9608765,,0,,
87594,6.670129395,-8.590186615,0.561332703,984.3305969,321.329071,,0,,
87662,8.855285339,-9.315578156,1.202599182,984.3305969,330.1534424,,0,,
87728,5.979016571,-5.536985779,2.572550354,984.3305969,336.3407898,,0,,
87794,5.792504425,-5.784121857,2.838696899,984.3305969,340.1976013,,0,,
87862,5.826783142,-7.627239075,2.092798004,984.3305969,340.1976013,,0,,
87928,6.683002625,-9.304052124,3.808979187,984.3305969,343.0016785,,0,,
87994,4.358187103,-6.310577087,4.04728363,984.3305969,349.4360657,,0,,
88062,2.544708252,-6.879244537,5.800737305,984.3305969,359.9669495,,0,,
88128,3.26216629,-7.252867584,5.46199173,984.3305969,3.958472729,,-0.009918213,,
88194,2.576442261,-6.978787537,5.13671814,984.3206787,5.015310764,,0,,
88262,2.579885101,-6.482120361,5.802234192,984.3206787,8.234754562,,0,,
88328,2.857557678,-6.898404694,6.149362335,984.3206787,8.234754562,,0,,
88394,2.508034515,-6.664141846,6.280489655,984.3206787,9.551374435,,0,,
88461,2.1857547,-7.166646881,6.579268341,984.3206787,9.551374435,,0,,
88528,6.046825562,-10.16581009,6.932384033,984.3206787,7.908856869,,0,,
88594,3.629352722,-9.035959625,4.265080719,984.3206787,4.977425098,,0,,
88662,4.203708344,-5.778283997,3.462000732,984.3206787,355.6021423,,0,,
88727,6.290818176,-8.856482849,1.884730682,984.3206787,347.0350647,,0,,
88794,6.635401611,-7.470215607,-0.917142792,984.3206787,331.6159363,,0,,
88862,5.828729095,-6.056854706,-0.27378067,984.3206787,324.8575439,,0,,
88928,5.528303833,-3.952680359,-1.484463043,984.3206787,329.664856,,0,,
88994,7.292086029,-6.217171326,0.18366806,984.3206787,328.2572021,,0,,
89062,8.141120453,-7.47455658,2.251018982,984.3206787,332.6954956,,-0.015716553,,
89128,6.941065979,-6.364614716,1.952389984,984.3049622,337.1456604,,0,,
89194,6.716532898,-5.908513184,1.808688812,984.3049622,341.0020447,,0,,
89262,6.432274017,-5.977070618,1.523980865,984.3049622,342.2738953,,0,,
89328,7.067403259,-7.122189331,1.917362823,984.3049622,342.2738953,,0,,
89394,6.852300568,-6.743027802,1.666484528,984.3049622,340.5067444,,0,,
89461,6.703509979,-6.597380676,1.456471252,984.3049622,339.4427795,,0,,
89528,6.945257263,-6.82625473,1.46500351,984.3049622,339.4427795,,0,,
89594,8.09815979,-7.993078308,1.546134796,984.3049622,338.0883179,,0,,
89662,9.971065063,-9.063352661,1.726509705,984.3049622,334.9882813,,0,,
89728,10.17643799,-13.18997131,0.252824249,984.3049622,326.1412659,,0,,
89794,4.38198761,-7.707921295,-0.308508453,984.3049622,315.2774658,,0,,
89861,2.819985809,-7.896080017,-0.069305878,984.3049622,305.4068909,,0,,
89928,3.267704773,-5.97677124,0.616418152,984.3049622,310.696106,,0,,
89994,3.316503296,-4.244273987,0.366138611,984.3049622,315.9464417,,0,,
90062,6.753655701,-6.747518463,0.387394409,984.3049622,322.0209656,,-0.017929077,,
90127,7.699538727,-8.897647247,2.912493439,984.2870331,335.6618042,,0,,
90193,4.779710541,-7.059918823,5.902675323,984.2870331,342.6804504,,0,,
90262,2.528242493,-6.234684906,3.913012848,984.2870331,350.4035645,,0,,
90328,2.590063934,-6.410569153,4.981191559,984.2870331,357.276886,,0,,
90394,2.92641449,-7.432793427,6.397097168,984.2870331,1.837294579,,0,,
90462,2.395767975,-6.89181839,6.257437592,984.2870331,3.392469883,,0,,
90528,1.80659317,-5.996230774,6.045029297,984.2870331,5.137658596,,0,,
90594,2.152374115,-6.275998993,6.007457428,984.2870331,5.137658596,,0,,
90663,1.63460083,-6.821165314,6.635700989,984.2870331,3.958131313,,0,,
90728,2.885250092,-6.36296814,8.796307983,984.2870331,2.707733154,,0,,
90794,11.27051285,-14.33449127,9.737251282,984.2870331,2.707733154,,0,,
90862,1.873054962,-6.175108795,5.948629761,984.2870331,359.5435486,,0,,
90928,6.907386017,-8.919352112,2.514321442,984.2870331,346.395813,,0,,
90994,6.136339417,-8.350834351,-0.014669495,984.2870331,333.888855,,-0.016098022,,
91062,5.908363495,-4.301604767,-2.334395599,984.2709351,327.2630005,,0,,
91127,2.806513824,-2.654280396,-0.771795044,984.2709351,330.1643372,,0,,
91194,7.044201508,-6.367758179,-1.533860321,984.2709351,328.5356445,,0,,
91262,9.800868988,-10.1391655,0.609083405,984.2709351,327.1931458,,0,,
91328,6.203699341,-6.157295837,1.931583252,984.2709351,332.0594482,,0,,
91394,5.285359039,-5.184019775,1.201551361,984.2709351,335.1385498,,0,,
91462,7.192992096,-7.517217865,0.98525116,984.2709351,335.1385498,,0,,
91527,6.920109558,-6.99824707,1.642684021,984.2709351,335.1385498,,0,,
91594,6.703509979,-6.420149231,1.316212921,984.2709351,335.1385498,,0,,
91662,6.973997498,-6.053860931,1.0776091,984.2709351,335.1385498,,0,,
91727,8.164771271,-7.093898163,1.414708099,984.2709351,334.0804443,,0,,
91794,7.965685272,-7.808063049,1.4730867,984.2709351,332.6732483,,0,,
91861,9.796677704,-9.715396729,1.79371994,984.2709351,329.1332703,,0,,
91928,8.958271179,-11.42948227,0.577199707,984.2709351,327.6739197,,-0.019302368,,
91994,4.04024826,-6.48930542,0.152832184,984.2516327,321.7440796,,0,,
92062,4.430037689,-6.351891174,0.201181641,984.2516327,309.6390686,,0,,
92128,2.876568146,-5.150938568,0.657133484,984.2516327,311.1097107,,0,,
92194,3.891008606,-6.178701324,-0.038769379,984.2516327,315.546936,,0,,
92262,7.55763382,-8.91605896,0.337398376,984.2516327,322.1318359,,0,,
92327,7.167545013,-7.888146515,1.413211212,984.2516327,330.2825623,,0,,
92394,6.651268616,-6.173013153,2.805166626,984.2516327,336.4945068,,0,,
92462,5.148543549,-5.429658966,3.810476074,984.2516327,343.0091858,,0,,
92527,5.622158661,-8.119864655,3.242856445,984.2516327,345.4261169,,0,,
92594,5.484894104,-7.441625061,5.761668549,984.2516327,350.5796204,,0,,
92662,2.723735962,-5.713768158,5.587879944,984.2516327,357.9273071,,0,,
92728,2.631827087,-6.597979431,5.782325592,984.2516327,3.140291691,,0,,
92794,3.06098465,-6.253395996,6.000721436,984.2516327,4.650404453,,0,,
92862,2.475252686,-6.416257324,6.042484589,984.2516327,4.650404453,,-0.016021729,,
92927,2.978057098,-6.135740662,6.312073975,984.235611,4.650404453,,0,,
92994,2.533780975,-6.29620697,6.943760376,984.235611,3.589857578,,0,,
93061,4.459975433,-6.928192749,7.986192627,984.235611,2.121311188,,0,,
93127,5.485642548,-13.07800415,5.948929138,984.235611,359.9920959,,0,,
93194,5.503006439,-5.139562225,4.877008209,984.235611,356.7139587,,0,,
93261,6.347400513,-8.02675827,2.744542694,984.235611,341.8240662,,0,,
93327,5.582640839,-6.012846222,-1.014290771,984.235611,327.5643005,,0,,
93394,3.352578278,-3.330274658,-0.139060822,984.235611,325.4614868,,0,,
93462,5.727838898,-5.452711029,-0.312999115,984.235611,325.4614868,,0,,
93528,9.309291229,-9.355095978,0.017214203,984.235611,323.4048767,,0,,
93594,7.025041351,-6.682852936,1.623972931,984.235611,325.8457336,,0,,
93662,6.076613617,-5.77199707,1.871408386,984.235611,330.4311829,,0,,
93728,6.285878448,-5.444178772,1.248254242,984.235611,333.6938171,,0,,
93794,7.623197479,-7.162904663,1.931583252,984.235611,335.1311951,,-0.01625061,,
93861,7.427254944,-7.40315506,1.788929901,984.2193604,336.2760315,,0,,
93928,6.487209778,-6.189628601,1.602567444,984.2193604,336.2760315,,0,,
93994,6.396648102,-6.230643311,1.632654877,984.2193604,336.2760315,,0,,
94062,6.992109833,-7.196434937,1.590742035,984.2193604,336.2760315,,0,,
94127,7.92616745,-8.252039795,1.633103943,984.2193604,335.0438538,,0,,
94194,10.12778915,-10.18167709,1.820514221,984.2193604,332.9198608,,0,,
94262,7.788004761,-9.625284119,0.798589325,984.2193604,328.0422363,,0,,
94328,4.214785309,-7.088808746,0.122145996,984.2193604,316.4960632,,0,,
94394,3.224893799,-7.230264587,-0.771944733,984.2193604,303.9950867,,0,,
94462,3.10888504,-5.577252045,1.027762756,984.2193604,304.7945862,,0,,
94528,5.539530487,-7.230713654,0.642763367,984.2193604,313.714447,,0,,
94594,8.218808899,-9.339827728,0.7617659,984.2193604,319.2949829,,0,,
94662,5.311853943,-6.489754486,1.009351044,984.2193604,329.0546875,,0,,
94728,5.138664093,-7.156018982,1.929188232,984.2193604,332.6745605,,-0.016555786,,
94794,5.187163239,-7.54940094,2.220632172,984.2028046,334.461731,,0,,
94861,6.800807648,-8.192014618,2.978805542,984.2028046,335.7756958,,0,,
94928,5.537883911,-6.767127686,4.804558868,984.2028046,339.1124268,,0,,
94994,4.365521851,-6.002368011,4.971162415,984.2028046,342.1923218,,0,,
95062,2.561174011,-6.654112701,5.665718079,984.2028046,349.9317627,,0,,
95127,2.498454437,-5.76032135,5.715265045,984.2028046,353.2326965,,0,,
95194,3.181035004,-6.280190277,6.133345642,984.2028046,353.2326965,,0,,
95262,2.815046082,-6.127358093,6.673871613,984.2028046,353.2326965,,0,,
95327,3.472329254,-5.747747498,8.616980896,984.2028046,353.2326965,,0,,
95394,9.987530823,-13.35283264,8.510252838,984.2028046,353.2326965,,0,,
95462,3.761378174,-6.018235016,3.880380707,984.2028046,349.6455688,,0,,
95527,5.194947052,-7.780969391,2.732717285,984.2028046,340.0545654,,0,,
95594,5.599705353,-7.55987915,0.492326202,984.2028046,326.8357239,,0,,
95662,5.576802979,-3.614084473,-0.22228775,984.2028046,324.3732605,,-0.017318726,,
95728,4.478536835,-3.652404785,0.445024567,984.1854858,333.1792603,,0,,
95794,8.713530121,-7.639962616,0.251027985,984.1854858,330.4073181,,0,,
95862,8.532556458,-9.047934723,0.293838959,984.1854858,329.3991394,,0,,
95927,5.692063293,-6.129453735,1.976190491,984.1854858,331.8224792,,0,,
95994,6.497238922,-6.696773987,1.527872772,984.1854858,336.3175659,,0,,
96062,6.442901917,-6.242917786,0.999920654,984.1854858,337.6573792,,0,,
96127,6.566395111,-6.421496429,1.640289001,984.1854858,337.6573792,,0,,
96194,7.131020966,-6.714586945,1.358574829,984.1854858,338.9683228,,0,,
96262,7.085964661,-6.507268066,1.20050354,984.1854858,338.9683228,,0,,
96327,6.793173523,-6.552324371,1.423689423,984.1854858,334.9781189,,0,,
96394,8.157137146,-8.720415802,1.42518631,984.1854858,332.3062439,,0,,
96462,9.996661835,-10.01133133,1.287921753,984.1854858,327.9382019,,0,,
96527,8.343499603,-12.16595078,-0.072898407,984.1854858,321.8740234,,0,,
96594,4.427942047,-6.858437805,0.598605194,984.1854858,312.9681702,,0,,
96662,4.499343567,-7.005731506,1.772314453,984.1854858,310.2879639,,-0.018234253,,
96727,3.807033234,-5.943839722,1.007105713,984.1672516,315.6947327,,0,,
96794,4.505480804,-5.911656647,0.018262024,984.1672516,320.6096802,,0,,
96862,6.107748871,-7.438481598,0.538729706,984.1672516,323.383667,,0,,
96928,6.94795166,-8.408913574,1.158740387,984.1672516,329.5212097,,0,,
96994,6.68943924,-7.253765717,0.53588562,984.1672516,333.8668518,,0,,
97062,6.851701813,-6.100713501,1.825453949,984.1672516,338.02948,,0,,
97128,5.33325943,-6.162684631,1.808688812,984.1672516,339.6219482,,0,,
97194,5.866750031,-7.658074951,2.895877991,984.1672516,339.6219482,,0,,
97262,5.227279816,-6.594536591,2.508034515,984.1672516,339.6219482,,0,,
97328,5.150489502,-6.563551025,3.201991425,984.1672516,343.3447571,,0,,
97394,5.334007874,-6.448440399,4.263134766,984.1672516,346.7889099,,0,,
97461,5.063670044,-6.407575378,5.635780334,984.1672516,347.7894897,,0,,
97528,8.082592163,-7.979456635,6.56774231,984.1672516,349.3210144,,0,,
97594,8.204139404,-10.10937744,2.282004547,984.1672516,342.8729553,,-0.015945435,,
97662,5.132377167,-7.702382813,0.883762207,984.1513062,333.4930115,,0,,
97728,5.80013855,-8.115373993,-0.853974152,984.1513062,325.4642029,,0,,
97794,6.399791565,-6.88358551,-0.932411041,984.1513062,323.7453918,,0,,
97862,5.389093323,-4.389322357,0.395627289,984.1513062,327.6938171,,0,,
97928,5.742508392,-4.227957916,0.916993103,984.1513062,333.4840698,,0,,
97994,7.469467163,-5.139861603,0.809815979,984.1513062,336.4242859,,0,,
98062,9.516460419,-8.802295532,1.886826324,984.1513062,336.4242859,,0,,
98127,6.289470978,-6.916816406,2.62329483,984.1513062,336.4242859,,0,,
98194,5.263354797,-5.514831848,1.513802032,984.1513062,340.2791443,,0,,
98262,6.626869354,-7.392377472,0.95710968,984.1513062,340.2791443,,0,,
98327,7.742200012,-8.659193115,2.180814972,984.1513062,340.2791443,,0,,
98394,6.22839798,-6.085295563,1.487307129,984.1513062,339.2184753,,0,,
98462,5.816155243,-5.287005615,1.142124939,984.1513062,339.2184753,,0,,
98528,7.063211975,-6.476282501,1.628164215,984.1513062,337.3707581,,-0.019302368,,
98594,9.187594299,-9.060209198,2.394720154,984.1320038,335.1098938,,0,,
98662,10.38031403,-10.05234604,1.196611633,984.1320038,333.0319824,,0,,
98727,7.95775177,-11.33338211,-0.354911957,984.1320038,327.1091919,,0,,
98794,2.634521484,-6.154751129,0.03742218,984.1320038,313.1856995,,0,,
98862,3.739673309,-4.640949097,1.546434174,984.1320038,305.4123535,,0,,
98927,4.79857132,-8.487949219,0.450862427,984.1320038,313.1872559,,0,,
98994,4.924609222,-7.544012146,-1.47548172,984.1320038,318.144928,,0,,
99062,8.353678436,-9.348359985,-1.074765015,984.1320038,322.6706848,,0,,
99127,3.170107727,-6.826105042,4.58436676,984.1320038,340.2619324,,0,,
99194,-0.540376282,-5.728587341,9.10676239,984.1320038,2.506472588,,0,,
99263,1.520837402,-6.153703308,5.606890411,984.1320038,4.44014883,,0,,
99327,0.741557922,-5.761069794,5.862858124,984.1320038,5.029907703,,0,,
99394,1.591939545,-6.748566284,6.202801208,984.1320038,6.144424915,,0,,
99462,1.097068634,-6.878346405,6.523733826,984.1320038,7.174850941,,-0.01411438,,
99527,0.563727722,-6.237978058,6.68584671,984.1178894,7.174850941,,0,,
99594,2.470762024,-7.932154999,7.123985596,984.1178894,4.211984158,,0,,
99662,4.605622559,-8.297545166,8.910520477,984.1178894,4.211984158,,0,,
99727,3.024759979,-10.4880899,5.457052002,984.1178894,1.891716003,,0,,
99794,4.98343689,-7.35510498,1.632954254,984.1178894,353.2790222,,0,,
99861,2.734962616,-7.011419678,0.804427185,984.1178894,346.0881653,,0,,
99927,6.173312531,-8.305179291,0.489182739,984.1178894,339.523407,,0,,
99994,6.138584747,-4.845723267,0.125738525,984.1178894,336.9854126,,0,,
100063,6.089037781,-5.366190948,1.614093475,984.1178894,336.9854126,,0,,
100127,7.804171143,-7.230863342,1.086889801,984.1178894,340.1703186,,0,,
100194,7.997868347,-6.903344421,-0.191601563,984.1178894,337.9154358,,0,,
100262,6.453978882,-6.811585236,1.212328949,984.1178894,337.9154358,,0,,
100327,5.778433685,-7.314090271,0.447120209,984.1178894,333.2185974,,0,,
100394,6.506669312,-8.38361618,-0.196092224,984.1178894,330.3241272,,-0.013580322,,
100462,6.75724823,-7.439080353,0.576451263,984.1043091,330.3241272,,0,,
100527,7.022047577,-6.144422607,0.886606293,984.1043091,333.5028381,,0,,
100594,6.954537964,-6.487060089,0.586031342,984.1043091,333.5028381,,0,,
100662,6.481521606,-6.224206696,0.641865234,984.1043091,333.5028381,,0,,
100727,7.041207733,-6.736291809,0.72075119,984.1043091,333.5028381,,0,,
100794,8.573870544,-8.860823822,1.369502106,984.1043091,334.7321472,,0,,
100862,10.85228256,-12.70677612,2.159858551,984.1043091,334.7321472,,0,,
100927,8.157735901,-8.961564331,1.325493622,984.1043091,337.2434387,,0,,
100994,3.503015442,-5.312003632,-0.06780899,984.1043091,336.8206787,,0,,
101062,3.398233337,-5.102589111,-0.032183075,984.1043091,326.9389038,,0,,
101127,3.892056427,-6.524332581,-0.009131012,984.1043091,321.4017639,,0,,
101194,4.461921387,-8.555159454,-1.155746613,984.1043091,322.4977417,,0,,
101261,6.351292419,-8.417296143,-1.001866608,984.1043091,325.7517395,,0,,
101327,8.358917542,-7.513026581,3.952231293,984.1043091,332.7417603,,-0.015945435,,
101394,4.73300766,-5.762566681,5.510191498,984.0883636,342.3608704,,0,,
101462,4.248165894,-6.429130554,4.506678314,984.0883636,348.5513306,,0,,
101527,2.837050323,-6.835086365,5.711073761,984.0883636,352.9156494,,0,,
101594,2.669997711,-5.957910461,5.855223999,984.0883636,215.8450623,,0,,
101662,1.205293579,-6.30788269,6.942263489,984.0883636,215.8450623,,0,,
101727,1.402283936,-5.872587891,6.602320404,984.0883636,216.9943542,,0,,
101794,1.191372528,-6.30563736,7.778424683,984.0883636,4.089155674,,0,,
101862,3.853436737,-7.409741364,6.961423645,984.0883636,0.994071007,,0,,
101928,9.899513855,-14.69808517,7.224277039,984.0883636,354.0833435,,0,,
101994,3.985611877,-5.74161026,1.994003448,984.0883636,340.0179443,,0,,
102062,6.262077942,-9.506880341,-0.082328796,984.0883636,327.735321,,0,,
102127,7.01815567,-4.830305328,-1.510508881,984.0883636,322.1460876,,0,,
102194,3.685336304,-3.31021637,1.301244049,984.0883636,330.4445801,,0,,
102262,7.810458069,-6.23543335,0.624351654,984.0883636,332.2037354,,-0.013198853,,
102327,9.164691925,-8.551866302,0.24339386,984.0751648,330.6015015,,0,,
102394,6.40039032,-6.016887817,1.920955353,984.0751648,330.6015015,,0,,
102462,6.641089783,-5.998326416,1.441352692,984.0751648,330.6015015,,0,,
102527,6.776707764,-6.138884125,1.185834045,984.0751648,330.6015015,,0,,
102594,6.984026642,-6.727909241,1.109043732,984.0751648,328.3668823,,0,,
102660,6.798562317,-7.078629913,1.415905609,984.0751648,327.2778015,,0,,
102727,7.163503418,-7.058571625,1.48835495,984.0751648,327.2778015,,0,,
102794,6.756799164,-6.428531799,1.353036346,984.0751648,327.2778015,,0,,
102862,6.596183167,-6.105653229,1.167572021,984.0751648,330.2762146,,0,,
102927,7.200326843,-6.806645508,1.448238373,984.0751648,331.3011169,,0,,
102994,6.834337921,-6.493496704,1.578018494,984.0751648,332.6214905,,0,,
103062,7.199279022,-7.001689911,1.764680328,984.0751648,333.8621826,,0,,
103127,7.721992035,-7.384593658,1.768123169,984.0751648,335.2743835,,0,,
103194,8.662635956,-7.713609467,1.828148346,984.0751648,338.186615,,0,,
103262,10.33795212,-12.31189728,1.312021637,984.0751648,336.1796875,,-0.014801025,,
103327,7.391778717,-10.15353561,0.885857849,984.0603638,331.2313843,,0,,
103394,2.888692932,-7.660020905,0.073048096,984.0603638,312.7782593,,0,,
103462,3.081192627,-6.760391693,0.61192749,984.0603638,302.7882385,,0,,
103527,2.288590851,-4.745581512,0.300874329,984.0603638,312.0529785,,0,,
103594,4.051624603,-5.52980072,-0.219743042,984.0603638,319.3287048,,0,,
103662,12.37237152,-11.86537582,1.316063232,984.0603638,325.2731323,,0,,
103727,3.516786804,-6.273454285,4.723577271,984.0603638,333.8101501,,0,,
103794,5.402116241,-7.532186737,4.254602509,984.0603638,338.0881653,,0,,
103862,4.226910095,-6.596781921,3.707639923,984.0603638,340.10495,,0,,
103927,3.512296143,-7.269333344,5.324876862,984.0603638,344.4063416,,0,,
103994,3.772155762,-6.506519623,5.951773224,984.0603638,347.3208618,,0,,
104062,3.371588745,-6.401288452,5.853278046,984.0603638,209.96315,,0,,
104127,3.041225739,-5.792803802,6.434519348,984.0603638,209.96315,,0,,
104194,3.144810333,-5.85163147,6.602170715,984.0603638,211.2077942,,-0.013656616,,
104261,3.019520874,-6.136938171,6.571035461,984.0467072,212.4702301,,0,,
104327,3.390449524,-6.414610748,6.598578186,984.0467072,213.6400299,,0,,
104394,2.105371857,-6.522985382,6.457571411,984.0467072,352.4309082,,0,,
104462,2.805615692,-6.983427887,7.628436584,984.0467072,351.3962097,,0,,
104527,8.941356354,-10.45620621,9.43083847,984.0467072,349.6631165,,0,,
104594,0.31359787,-7.650740204,4.400549011,984.0467072,347.2193298,,0,,
104662,6.408174133,-7.412585449,3.359463959,984.0467072,343.1608582,,0,,
104727,4.467010803,-7.147337036,1.436113586,984.0467072,333.4076843,,0,,
104794,4.707859955,-7.300019531,0.100890198,984.0467072,318.3251343,,0,,
104861,7.057523804,-6.504274292,-2.990930328,984.0467072,310.995697,,0,,
104927,6.015839996,-5.223537598,-2.08396637,984.0467072,315.5721741,,0,,
104994,7.290289764,-6.704258423,-0.912203064,984.0467072,319.6327209,,0,,
105062,9.405840454,-8.490044861,0.428558807,984.0467072,323.3267517,,0,,
105127,5.409151611,-4.722828827,1.889071655,984.0467072,327.809906,,-0.018234253,,
105194,6.374344482,-5.74864563,1.440903625,984.0284729,332.9420471,,0,,
105261,7.499704285,-7.682474213,0.522263947,984.0284729,331.6314697,,0,,
105327,6.082750854,-7.127727814,1.217568054,984.0284729,330.3497925,,0,,
105394,6.431525574,-7.245083771,0.746048584,984.0284729,330.1271973,,0,,
105462,6.8332901,-7.170987854,0.877175903,984.0284729,331.6066895,,0,,
105527,7.967331848,-7.468419342,2.539469147,984.0284729,334.3095703,,0,,
105594,9.000633087,-9.343270569,2.128573608,984.0284729,335.4140625,,0,,
105662,9.789342957,-11.14163086,1.012793884,984.0284729,332.9789734,,0,,
105727,6.440955963,-10.63732956,-0.385149078,984.0284729,323.8699341,,0,,
105794,1.876348114,-6.551875305,-1.421444092,984.0284729,306.0749207,,0,,
105861,3.157982941,-8.044421539,-0.327967987,984.0284729,310.5352173,,0,,
105927,4.323309631,-5.515280914,-0.171243896,984.0284729,316.7881775,,0,,
105994,7.69684433,-7.010820923,2.0968396,984.0284729,329.0760498,,0,,
106060,3.910617828,-6.218817902,2.883902893,984.0284729,341.5409241,,-0.018768311,,
106127,3.224893799,-6.997648315,4.841681671,984.0097046,352.6848145,,0,,
106194,2.062560883,-6.426885223,6.4179039,984.0097046,359.1301575,,0,,
106261,2.309547272,-6.76892395,6.057453461,984.0097046,216.6677704,,0,,
106327,2.672093353,-5.752687225,5.868396606,984.0097046,216.6677704,,0,,
106394,1.46021347,-6.816824341,5.515580292,984.0097046,216.6677704,,0,,
106461,2.10731781,-6.928641815,7.471263428,984.0097046,2.241598606,,0,,
106527,4.094734955,-6.821764069,9.072783051,984.0097046,358.1835327,,0,,
106594,3.824397125,-8.492589569,3.357218628,984.0097046,354.5606384,,0,,
106662,5.232967987,-7.132068787,5.286706238,984.0097046,346.4428711,,0,,
106727,5.42097702,-5.914051666,1.252744904,984.0097046,336.9517822,,0,,
106794,7.664511566,-9.417516174,0.825533295,984.0097046,333.451416,,0,,
106861,3.235970764,-3.129691772,1.119671631,984.0097046,333.6492004,,0,,
106927,4.07303009,-3.37098999,1.16068634,984.0097046,337.1528931,,0,,
106994,8.221203918,-7.627239075,0.393232269,984.0097046,337.1528931,,-0.020904541,,
107062,8.184530182,-8.338410187,1.074765015,983.9888,334.6452637,,0,,
107127,5.753435669,-5.741759949,2.373913422,983.9888,336.2139893,,0,,
107194,6.774911499,-6.396199036,1.198707275,983.9888,337.3934631,,0,,
107261,6.727909241,-6.189478912,1.799707489,983.9888,338.9044189,,0,,
107326,6.925648041,-6.577472076,2.043849792,983.9888,341.4180298,,0,,
107394,6.818470917,-6.786886597,1.871707764,983.9888,343.7637634,,0,,
107461,7.488327942,-6.992558899,2.139949951,983.9888,347.6976013,,0,,
107527,8.894354095,-8.240364075,2.269281006,983.9888,339.2805481,,0,,
107594,9.096733246,-9.857750702,2.129771118,983.9888,337.2384033,,0,,
107661,3.404520264,-4.300856323,0.803529053,983.9888,339.3680115,,0,,
107727,6.769073639,-7.304510193,0.275726624,983.9888,335.2528992,,0,,
107794,7.581284637,-9.634864197,0.219443665,983.9888,325.2140198,,0,,
107862,3.705843658,-6.426436157,1.166075134,983.9888,318.0364685,,0,,
107927,5.179080048,-7.253616028,1.714235229,983.9888,315.3798218,,-0.018844604,,
107994,5.725593567,-6.356681213,1.307081909,983.9699554,317.0783997,,0,,
108062,6.186036072,-6.635401611,1.413959656,983.9699554,325.020874,,0,,
108127,14.74882965,-2.898123322,12.18840408,983.9699554,337.4488525,,0,,
108194,5.031037903,-6.97369812,-0.548010406,983.9699554,337.8083801,,0,,
108261,4.71309906,-6.940616913,-3.272494812,983.9699554,325.556366,,0,,
108327,6.259383545,-10.3593576,-0.004490662,983.9699554,301.0941467,,0,,
108394,5.820645905,-6.765780487,1.44734024,983.9699554,296.7721863,,0,,
108461,6.93163559,-7.082072754,-0.697549438,983.9699554,299.9901428,,0,,
108527,7.34582428,-6.021977234,0.788260803,983.9699554,303.7971802,,0,,
108594,7.855514374,-5.936205597,0.873583374,983.9699554,304.9526978,,0,,
108662,8.747060394,-4.498595123,1.540596313,983.9699554,308.9555664,,0,,
108727,9.981094208,-6.050118713,0.883163452,983.9699554,294.5993347,,0,,
108794,6.833888855,-8.263266449,2.301464081,983.9699554,289.2493591,,0,,
108860,4.835694122,-6.884034576,0.569565582,983.9699554,286.0009766,,0,,
108927,5.83292038,-9.606872406,-0.461939392,983.9699554,270.9636536,,-0.015487671,,
108994,4.662055206,-8.746461639,2.88899231,983.9544678,266.0476685,,0,,
109060,4.781357117,-5.155878296,1.853894806,983.9544678,262.5863342,,0,,
109127,6.092031555,-6.068231049,1.462009735,983.9544678,257.4548035,,0,,
109194,6.029910736,-5.842500458,2.832859039,983.9544678,255.1409912,,0,,
109262,6.859934692,-7.473808136,2.920726318,983.9544678,255.1409912,,0,,
109327,10.35381912,-6.34305954,6.110742645,983.9544678,257.8146667,,0,,
109394,5.746400299,-6.63794632,3.701652374,983.9544678,259.3484497,,0,,
109462,6.762337646,-10.21520737,-0.321980438,983.9544678,254.3230896,,0,,
109527,4.794829102,-5.477559357,0.218545532,983.9544678,244.2070313,,0,,
109594,8.58494751,-8.895401917,1.694176941,983.9544678,240.6360474,,0,,
109661,6.422095184,-5.552403717,-0.360300751,983.9544678,240.6360474,,0,,
109727,5.857020264,-5.152285767,-0.118703156,983.9544678,237.062027,,0,,
109794,6.503675537,-5.748795319,2.309547272,983.9544678,236.012207,,0,,
109860,7.036417694,-6.788383484,1.480271759,983.9544678,237.3424225,,-0.009689331,,
109927,7.278164978,-6.381978607,2.110910339,983.9447784,241.145874,,0,,
109994,7.909102936,-8.315058746,1.563798065,983.9447784,239.1339722,,0,,
110062,8.872948608,-7.307054901,1.939217377,983.9447784,232.8913269,,0,,
110127,8.327333221,-9.558522949,1.700314178,983.9447784,227.1890259,,0,,
110194,3.502266998,-5.72289917,-0.078885956,983.9447784,223.6981812,,0,,
110261,5.519172821,-8.027207336,-0.268242188,983.9447784,216.8898315,,0,,
110327,7.076234894,-8.260871429,1.674118652,983.9447784,217.5446472,,0,,
110394,3.719315643,-4.305047607,2.605182495,983.9447784,223.3004761,,0,,
110461,4.357887726,-6.99360672,4.153412933,983.9447784,224.734787,,0,,
110527,5.74400528,-5.722599792,3.777843933,983.9447784,223.1745758,,0,,
