relative_time,AccX,AccY,AccZ
0,-1.2377760314941406,10.098599853515626,1.9805314636230469
12,-1.3166619873046876,10.063273315429688,1.7854870605468751
79,-1.2314891052246095,9.443262634277344,2.0386106872558596
152,-1.2388238525390625,9.435478820800782,1.9152671813964846
214,-1.2970527648925783,9.328152008056641,1.9486477661132813
279,-1.3468991088867188,9.199569396972656,1.9205062866210938
353,-1.2976515197753906,8.940458221435547,2.1415965270996096
412,-1.1633807373046876,9.068142700195313,2.322270812988281
479,-1.247655487060547,8.838220825195313,2.4897724914550783
553,-1.8480569458007814,8.660240936279298,2.1273760986328125
614,-1.9637663269042969,9.339228973388673,2.8291168212890625
679,-2.4275019836425784,9.009315032958984,3.134032745361328
750,-2.6086253356933593,8.922944641113281,3.297642517089844
812,-3.3675471496582032,8.741372222900392,4.175117797851563
879,-3.3663496398925785,9.271270294189454,4.6111610412597654
950,-3.839365997314453,8.148155822753907,4.3613305664062505
1012,-3.736380157470703,8.294701080322266,5.197042694091797
1079,-3.934717712402344,7.977660369873047,5.249134368896485
1150,-4.898862762451172,7.750283203125,4.708758087158204
1212,-5.422922973632812,7.334747314453125,4.362827453613281
1279,-5.286556549072266,7.744445343017579,4.700375518798828
1350,-4.550537109375,7.688611450195313,3.7787420654296877
1412,-5.201982421875,5.983956298828125,-1.5513739013671877
1479,-5.606591033935548,8.302185516357422,1.0768606567382812
1551,-4.534370727539063,7.6808276367187505,1.2620256042480469
1612,-2.946921844482422,6.9323840332031255,-0.6652166748046875
1679,-5.225483551025391,6.840325469970703,0.3842509460449219
1751,-1.0809022521972658,13.058245239257813,-4.055516510009766
1814,-3.3187486267089845,13.454770660400392,5.483846282958985
1879,0.6159690856933594,3.5739678955078125,-1.6982185363769533
1950,-0.9797126770019532,4.024231567382813,-2.2037173461914064
2012,-2.719245300292969,10.230924682617188,0.9446855163574219
2078,-2.607876892089844,11.22111557006836,0.22632934570312502
2150,-1.3787828063964844,12.403357086181641,-1.0353968811035157
2213,-2.283202056884766,12.320579223632814,-1.4329701232910157
2279,-2.8030709838867187,11.694281616210938,-0.4915777587890625
2350,-1.0922785949707032,9.22127426147461,-0.6721023559570313
2418,-1.1042536926269533,8.914562072753906,-2.485431518554688
2479,-0.899180145263672,7.284002838134766,-1.1394305419921875
2550,-0.6265969848632813,12.372371520996094,0.51013916015625
2612,-3.5687287902832034,22.219943389892578,-2.0011885070800783
2679,-0.3384461975097656,7.881859588623048,-1.4855108642578125
2750,0.36000137329101567,0.27991790771484376,-0.7119195556640625
2812,-1.182989959716797,14.813794555664064,-0.530496826171875
2879,-0.4125421142578125,10.435698852539064,-1.2126283264160156
2950,-0.7972421264648438,9.932445373535156,-0.7331753540039063
3014,-0.26914031982421877,9.047186279296875,-0.2908451843261719
3079,-0.5900729370117188,6.669530639648438,-0.6765930175781251
3151,-1.8510507202148438,10.44947021484375,-0.21764739990234377
3212,-1.703757019042969,10.48868865966797,-1.1105406188964844
3279,-1.8371296691894532,9.300609283447265,-0.1287322998046875
3350,-1.6850459289550783,9.461075592041016,-0.3706292724609375
3412,-1.5784675598144533,9.576485595703126,-0.42122406005859375
3479,-1.4248869323730469,9.799671478271485,-0.15582595825195314
3551,-1.2867242431640626,9.73575439453125,-0.18770965576171875
3614,0.08846603393554688,10.059830474853516,-0.1878593444824219
3679,-0.5650749206542969,9.78365478515625,-0.05822891235351563
3755,-0.5560935974121094,10.114167480468751,-0.04221221923828125
3812,-0.25761428833007816,9.612560577392578,-0.05748046875
3879,-0.5909710693359376,10.058483276367188,-0.08068222045898438
3951,-0.602347412109375,9.790690155029298,-0.024399261474609375
4012,-0.5107379150390625,9.817334747314453,0.13247451782226563
4079,-0.5682183837890625,9.826016693115236,0.19534378051757814
4151,-0.5078938293457032,9.742939453125,0.2740800476074219
4212,-0.5104385375976562,9.797575836181641,0.2471360778808594
4279,-0.44607238769531254,9.781409454345704,0.19070343017578126
4351,-0.39772293090820315,9.895771636962891,0.22408401489257815
4412,-0.5204676818847657,9.79802490234375,0.058977355957031255
4479,-0.7515870666503907,9.756710815429688,-0.04954696655273438
4551,-0.6709048461914063,9.774374084472656,-0.02604583740234375
4612,-0.5755531311035157,9.808203735351563,0.10568023681640626
4679,-0.5460644531250001,9.823771362304688,0.128133544921875
4750,-0.4890330505371094,9.771829376220703,0.22528152465820314
4812,-0.604742431640625,9.81,0.00718505859375
4879,-0.6182144165039063,9.775870971679687,0.12484039306640625
4955,-0.49517028808593755,9.795779571533204,0.05792953491210938
5014,-0.5634283447265626,9.820178833007812,0.067060546875
5079,-0.6162684631347657,9.78410385131836,0.08367599487304687
5158,-0.6319857788085937,9.779613189697265,0.0425115966796875
5212,-0.623902587890625,9.753866729736329,0.05523513793945313
5279,-0.5854325866699219,9.865384826660156,0.02155517578125
5350,-0.6304888916015625,9.754315795898439,0.09116043090820312
5412,-0.5792953491210938,9.801916809082032,0.10163864135742189
5479,-0.5498066711425782,9.833052062988282,0.06391708374023437
5552,-0.5978567504882812,9.792636108398439,0.06511459350585938
5612,-0.60114990234375,9.79847396850586,0.08113128662109376
5679,-0.6291416931152344,9.790390777587891,0.03547622680664063
5750,-0.6041436767578126,9.792636108398439,0.08068222045898438
5812,-0.5493576049804688,9.815538482666016,0.10193801879882813
5879,-0.5466632080078125,9.779613189697265,0.08771759033203125
5951,-0.6035449218750001,9.773176574707032,0.07259902954101563
6014,-0.5788462829589844,9.783205718994141,0.07439529418945313
6079,-0.5788462829589844,9.803413696289063,0.10448272705078125
6150,-0.55564453125,9.809850311279297,0.13007949829101564
6212,-0.5767506408691406,9.821376342773439,0.12439132690429688
6279,-0.5489085388183594,9.829160156250001,0.11181747436523438
6355,-0.5626799011230469,9.806257781982422,0.12499008178710938
6412,-0.5731581115722657,9.784702606201172,0.10403366088867189
6479,-0.55803955078125,9.803862762451173,0.11526031494140626
6552,-0.6120771789550782,9.804461517333985,0.09340576171875001
6612,-0.5845344543457032,9.830806732177734,0.07214996337890625
6679,-0.5974076843261719,9.756710815429688,0.10553054809570313
6749,-0.6529421997070313,9.807305603027345,0.04580474853515625
6812,-0.6162684631347657,9.792636108398439,0.06331832885742188
6879,-0.5918692016601563,9.805359649658204,0.06481521606445313
6951,-0.6168672180175782,9.796827392578125,0.1071771240234375
7012,-0.63468017578125,9.787397003173828,0.06691085815429688
7079,-0.6246510314941407,9.787097625732422,0.07589218139648438
7151,-0.6084846496582031,9.789043579101563,0.06271957397460938
7212,-0.6017486572265626,9.790989532470704,0.06870712280273437
7279,-0.6080355834960938,9.802066497802734,0.0820294189453125
7351,-0.6237528991699219,9.789792022705079,0.07514373779296875
7412,-0.6057902526855469,9.816436614990234,0.09834548950195313
7479,-0.6024971008300781,9.769284667968751,0.12319381713867188
7558,-0.6292913818359376,9.796228637695313,0.05673202514648438
7613,-0.629740447998047,9.794731750488282,0.032183074951171876
7679,-0.6248007202148438,9.803114318847657,0.06511459350585938
7752,-0.6062393188476562,9.8052099609375,0.06810836791992188
7812,-0.5769003295898438,9.937085723876953,-0.1293310546875
7879,-0.5011578369140626,9.899663543701172,-0.03622467041015625
7950,-0.2028282165527344,9.892179107666015,0.3339555358886719
8012,-0.32871643066406253,9.658964080810547,-0.2591111755371094
8079,-1.3055850219726564,9.442214813232422,-0.8400531005859375
8151,-1.508712615966797,9.838141479492188,-0.5794450378417969
8218,-1.9908599853515625,9.160800018310548,-0.7328759765625
8279,-2.503843231201172,9.583221588134766,0.43828857421875
8351,-0.9210346984863281,9.730814666748048,0.6053411865234375
8412,-1.8013540649414064,9.430090026855469,-0.07559280395507813
8479,-0.7685018920898438,9.666448516845703,-0.46912445068359376
8551,-1.268013153076172,9.322763214111328,-0.37077896118164066
8619,-1.7908758544921877,9.161249084472656,-0.5049000549316407
8679,-2.0610639953613283,9.912985839843751,0.16795074462890625
8752,-3.434308319091797,10.02315673828125,0.5010081481933594
8812,-3.2614178466796875,11.89696014404297,0.2682421875
8879,-1.8103353881835937,11.251352691650391,-0.4002676391601563
8951,-0.4351451110839844,10.106233978271485,0.6527925109863282
9012,-0.5382806396484375,11.448792114257813,-1.2470567321777344
9079,-1.7308506774902344,10.428064727783203,-0.6782395935058594
9152,-0.5402265930175781,7.782316589355469,-1.3377680969238281
9212,-0.21151016235351563,5.775140533447266,-0.8482859802246094
9279,-1.3970448303222658,6.935228118896485,-3.1485525512695314
9357,-4.066144409179688,9.041498107910156,-5.289700012207032
9412,-3.3570689392089847,10.763517150878906,-6.447841644287109
9479,-1.196162567138672,6.996600494384766,-2.9331504821777346
9555,-3.572920074462891,15.77494583129883,-3.040177917480469
9612,2.9425808715820314,5.1784812927246096,-2.322270812988281
9679,-0.45879592895507815,11.418255615234376,-1.2217593383789063
9751,-1.0874885559082033,10.198591918945313,0.27542724609375
9812,-2.5557852172851563,8.951984252929687,0.7105723571777344
9879,-1.954186248779297,8.785530395507813,0.14669494628906252
9954,-1.2883708190917968,9.216184844970703,0.8569679260253906
10012,-2.0731887817382812,8.6460205078125,0.3722758483886719
10079,-2.7737319946289065,10.56577835083008,-1.345851287841797
10152,-4.15056884765625,11.730805664062501,0.9180409240722657
10213,-1.8636245727539062,12.30216751098633,0.6840774536132813
10279,2.113455047607422,13.935271453857423,1.9190093994140627
10351,-2.316133575439453,12.815749511718751,-0.6063890075683595
10412,-1.05141357421875,9.150172119140626,-0.5120851135253907
10479,-0.060474243164062504,5.465733947753907,-1.2835807800292969
10550,-0.8830137634277344,3.433110809326172,-1.7077986145019532
10612,-3.061733093261719,8.553662567138673,-5.472320251464844
10679,-4.544250183105469,11.956087188720703,-6.750362548828125
10751,0.8985813903808594,9.640552368164062,-1.0903326416015626
10812,-1.7874330139160157,14.866484985351564,-4.221072235107422
10879,-3.3653018188476564,9.48188232421875,0.8771759033203126
10951,-0.09580078125000001,8.710386657714844,-0.18276992797851563
11012,-0.7409591674804688,9.93693603515625,-0.07200027465820313
11079,-2.930007019042969,8.870553588867187,0.34637969970703125
11150,-1.956581268310547,8.256530456542968,0.19848724365234377
11212,-1.559008026123047,9.714947662353516,0.7671546936035156
11279,-2.124232635498047,10.212962036132813,0.49187713623046875
11351,-1.6386424255371095,11.61479690551758,0.6206094360351563
11412,-3.8432579040527344,10.172845458984375,0.6533912658691406
11479,0.006885681152343751,12.350217590332031,0.5783972167968751
11550,0.9496252441406251,13.230387268066407,-1.3900094604492188
11613,-1.2168196105957032,10.58793228149414,-0.3423381042480469
11679,-0.5577401733398438,7.014862518310547,-1.8503022766113282
11751,0.6981481933593751,4.375101928710937,0.022004241943359377
11812,-1.0196795654296875,5.066514129638672,-1.991458740234375
11879,-5.251679077148438,12.615615692138672,-7.619006195068359
11950,-2.581381988525391,9.980046386718751,-7.9466748046875
12018,3.9534288024902344,13.537698211669923,-0.14953903198242188
12079,-0.6833290100097656,10.487640838623047,2.9785061645507813
12152,-7.159312133789063,13.827196197509766,2.43573486328125
12212,-1.0445278930664064,8.353678436279298,-0.05673202514648438
12279,-1.7866845703125,9.539961547851563,0.14534774780273438
12355,-2.3068528747558594,9.747579803466797,-0.35131942749023437
12413,-0.37437149047851564,9.563163299560548,-1.1952644348144532
12479,-1.4465917968750002,9.566306762695312,-1.199605407714844
12550,-3.7648210144042973,9.378597106933594,1.0171348571777343
12617,-0.6316864013671876,9.631421356201173,0.13247451782226563
12679,-0.4644841003417969,10.272238769531251,1.2611274719238281
12754,1.5676899719238282,12.943733367919922,0.7282356262207031
12812,2.3070025634765625,10.287357330322266,-0.028590545654296876
12879,0.8973838806152344,9.518705749511719,-0.08232879638671875
12950,0.6444099426269532,8.936865692138673,-1.0750643920898437
13012,0.6092330932617188,8.930279388427735,-1.422491912841797
13079,0.1531315612792969,9.438921661376954,-1.5832575988769533
13157,-0.3598516845703125,9.764943695068359,-2.059866485595703
13214,-0.3573069763183594,9.804910583496094,-1.9513421630859376
13279,-0.7673043823242188,9.517957305908203,-1.7125886535644532
13351,-0.9493258666992188,9.4986474609375,-2.6165588378906253
13412,-1.5874488830566407,9.367969207763672,-2.593656463623047
13479,-0.7134164428710937,8.946745147705078,-3.0023066711425783
13550,-0.9897418212890625,8.405919799804687,-3.2108230590820312
13619,-0.7300318908691407,8.425379333496094,-3.220852203369141
13679,-0.10103988647460938,8.731642456054688,-2.688259735107422
13752,-0.7301815795898438,12.124486999511719,-3.930077362060547
13812,1.8923648071289063,9.253157958984376,-1.7690213012695313
13879,-4.5795767211914065,10.798843688964844,1.0020162963867187
13954,-2.5381219482421877,9.711504821777345,-0.16705261230468751
14014,-2.042502593994141,9.387129364013672,0.4996609497070313
14079,-1.7293537902832032,9.791438598632814,-0.3585044860839844
14158,-1.4115646362304688,9.584269409179688,-0.5435197448730469
14212,-1.3222004699707033,9.4507470703125,0.08637039184570312
14279,-0.7453001403808595,9.59968734741211,0.2962339782714844
14357,-0.3525169372558594,9.560618591308595,0.7593708801269532
14412,-0.700543212890625,9.561067657470703,0.17438735961914065
14479,-1.4341676330566406,9.223968658447266,-0.1484912109375
14556,-1.9880158996582031,9.120084686279297,-0.10193801879882813
14612,-1.8229092407226564,10.299182739257812,0.28261230468750004
14679,-1.569935302734375,11.393407287597658,1.4732363891601563
14750,-1.0216255187988281,10.975027313232422,1.0828482055664064
14812,-0.6409671020507813,10.338700561523439,1.204545135498047
14879,0.5972579956054688,11.991563415527345,0.49951126098632814
14953,0.781973876953125,11.579769744873047,0.296982421875
15012,0.5519023132324219,10.49542465209961,0.1682501220703125
15079,1.9190093994140627,9.336384887695313,-1.4233900451660157
15151,-1.2627740478515626,6.793023834228516,-3.7577856445312503
15212,0.03742218017578125,7.087012481689453,-4.299359436035156
15279,1.5810122680664063,6.751410369873048,-4.134701843261719
15351,1.8456619262695313,9.17531982421875,-4.724625091552735
15413,1.8844313049316408,11.483220520019533,-5.866600341796875
15479,-0.9583071899414063,7.199578399658203,-4.165537719726562
15550,2.4780967712402346,10.484796752929688,-1.7646803283691408
15613,-2.2302122497558594,9.76404556274414,0.5876779174804688
15679,-0.27931915283203124,10.669512634277345,0.11406280517578125
15750,-1.55197265625,9.6183984375,0.025147705078125002
15812,-1.7440232849121096,9.97091537475586,0.1728904724121094
15879,-1.212778015136719,10.218799896240235,0.7068301391601562
15954,-1.4040802001953125,8.824599151611329,0.41433837890625
16012,0.8542735290527345,10.153236236572265,0.3936813354492188
16079,-0.0592767333984375,8.528963928222657,2.635419616699219
16154,0.9467811584472656,12.091256103515626,1.8254539489746096
16212,0.5923182678222657,11.968062286376954,1.9101777648925782
16279,0.7132667541503906,9.178014221191408,2.1656964111328127
16350,-0.18890716552734377,9.417366485595704,2.2757176208496093
16412,-2.645299072265625,9.711654510498047,0.1646575927734375
16479,-1.2040960693359375,9.47903823852539,-1.2376263427734375
16553,-1.5633489990234375,9.51735855102539,-1.9414627075195314
16612,-0.3754193115234375,8.743617553710937,-2.8050169372558593
16679,-1.0545570373535156,8.147557067871094,-3.723057861328125
16750,0.07424560546875,8.483159179687501,-4.082161102294922
16812,1.6808546447753907,7.516768798828125,-4.332141265869141
16879,3.2467483520507816,11.758647766113281,-4.595593414306641
16950,-3.140918426513672,3.8633161926269532,1.0087522888183593
17012,-1.11847412109375,12.790452117919923,0.8108638000488282
17079,1.3823753356933595,9.070088653564454,0.09969268798828125
17150,-1.016685791015625,9.567055206298829,-0.8791218566894532
17212,-2.706072692871094,9.663155364990235,0.33664993286132816
17279,-1.1096424865722656,10.013277282714844,0.9366023254394532
17357,-0.923280029296875,9.55852294921875,0.6548881530761719
17412,-1.7179774475097658,9.628277893066407,0.23965164184570314
17479,-2.562072143554688,10.23766067504883,0.1531315612792969
17550,-3.0693672180175784,9.654174041748048,0.18291961669921875
17618,-2.0899539184570313,9.55418197631836,-0.07110214233398438
17679,-1.4193484497070312,9.687255249023439,-0.5716612243652344
17751,-1.4663507080078126,9.980645141601563,-0.40670425415039063
17813,-1.5031741333007813,9.654922485351562,-0.49472122192382817
17879,-1.45377685546875,9.742041320800782,-0.11541000366210938
17951,-1.481169891357422,9.728719024658204,0.1598675537109375
18017,-0.7526348876953125,9.518406372070313,0.13037887573242188
18079,-1.6652870178222656,9.833052062988282,-0.038769378662109374
18151,-1.6256195068359376,9.771529998779297,0.27722351074218754
18212,-1.5688874816894531,9.61315933227539,0.40266265869140627
18279,-2.2339544677734375,9.776469726562501,0.07304809570312501
18357,-1.836680603027344,9.74578353881836,0.21989273071289064
18413,-1.7672250366210938,9.807006225585939,0.44996429443359376
18479,-1.4928456115722657,9.706415405273438,0.45565246582031255
18550,-1.6941769409179688,9.671687622070314,0.43200164794921875
18612,-1.5645465087890627,9.637857971191407,0.20731887817382813
18679,-1.6790583801269532,9.662706298828125,-0.5143304443359376
18750,-1.6477734375000002,9.867330780029297,0.13412109375
18816,-0.7773335266113282,9.745184783935548,0.36718643188476563
18879,-1.0987152099609376,9.569899291992188,0.001347198486328125
18950,-1.5922389221191406,9.602232055664063,-0.4355941772460938
19012,-2.1140538024902344,9.658365325927734,-0.6782395935058594
19079,-1.8911672973632814,9.469158782958985,-0.38709503173828125
19155,-1.7151333618164064,9.743837585449219,-0.22168899536132813
19212,-1.839225311279297,9.576485595703126,-0.07903564453125
19279,-0.9008267211914063,9.688452758789063,0.9057664489746095
19350,-0.47870452880859377,10.050400085449219,0.610580291748047
19413,-1.1060499572753906,9.72183334350586,0.5019062805175781
19479,-1.392703857421875,9.842183074951173,0.1442999267578125
19554,-1.729054412841797,9.71419921875,-0.1335223388671875
19612,-1.3968951416015625,9.67438201904297,0.10223739624023438
19679,-0.9451345825195313,9.608219604492188,0.2477348327636719
19754,-0.7881111145019531,9.883197784423828,0.379610595703125
19812,-1.0530601501464845,9.853709106445313,0.20971389770507814
19879,-1.13763427734375,9.688602447509766,-0.0335302734375
19954,-0.9036708068847656,9.665999450683595,0.05718109130859375
20013,-1.251397705078125,9.939031677246094,-0.10208770751953125
20079,-1.3217514038085938,9.616602172851563,-0.013921051025390626
20150,-1.5305671691894531,9.706265716552736,-0.05059478759765625
20212,-1.439107360839844,9.74338851928711,-0.07634124755859376
20279,-1.1732601928710937,9.792935485839845,-0.10253677368164063
20350,-1.2744497680664064,9.6998291015625,-0.20537292480468752
20412,-1.5034735107421875,9.66435287475586,-0.25267456054687504
20479,-0.9123527526855469,9.66914291381836,-0.09744735717773438
20552,-1.390159149169922,9.745933227539062,-0.3261717224121094
20614,-1.407223663330078,9.782457275390625,-0.013022918701171875
20679,-1.1282038879394531,9.877359924316407,0.5957611083984375
20753,-0.9235794067382813,9.969119110107423,0.2951861572265625
20812,-1.3227992248535156,9.771979064941407,-0.19145187377929687
20879,-1.3569282531738283,9.588460693359375,-0.07903564453125
20954,-0.9372010803222657,9.184750213623047,-0.12124786376953126
21012,-1.6947756958007814,10.221793670654298,-0.29144393920898437
21079,-0.8638536071777344,9.779912567138672,-0.05074447631835938
21156,-1.5160473632812501,9.974807281494142,0.015867004394531252
21212,-1.4314732360839844,9.665999450683595,0.06661148071289062
21278,-1.1295510864257814,9.502389678955078,0.2977308654785156
21351,-0.8494834899902344,9.523944854736328,0.36778518676757815
21412,-0.5861810302734375,9.540410614013672,0.2517764282226563
21479,0.6212081909179688,10.358160095214844,0.11091934204101563
21552,1.3744418334960937,10.998977508544922,-4.312532043457032
21616,0.7744894409179688,10.867251434326173,-3.1192135620117187
21679,1.162632293701172,9.026529235839844,-1.3012440490722657
21753,-0.6378236389160157,9.625134429931641,-1.2331356811523437
21812,-0.9334588623046876,10.030641174316406,-2.0543280029296875
21879,-0.8360115051269532,9.265731811523438,-2.102378082275391
21951,-1.3184582519531252,8.453520812988282,-3.9645057678222657
22013,-2.1885987854003908,9.21693328857422,-4.353995819091797
22079,-1.8541941833496094,7.992329864501953,-4.246219940185547
22150,-3.345692596435547,8.108338623046876,-3.5489698791503907
22212,-2.977158966064453,7.935448150634766,-3.8980439758300784
22279,-3.184926910400391,7.7160044860839845,-3.9416033935546877
22350,-4.204157409667969,10.961405639648438,-3.210673370361328
22412,-4.443060607910157,10.771300964355468,-5.294190673828125
22479,-0.4293072509765625,6.950945434570313,-4.154760131835937
22550,-1.9299366760253907,10.013277282714844,-0.03158432006835938
22612,-3.6458184814453127,9.626781005859376,0.7565267944335938
22679,-0.9928852844238282,9.380692749023439,-1.0409353637695313
22754,-1.2076885986328125,8.613987121582031,-0.7607180786132813
22812,0.5174739074707031,8.316106567382812,-0.5258564758300781
22879,-0.19594253540039064,8.204738159179687,-0.19953506469726565
22950,-0.9927355957031251,11.378139038085939,1.5497273254394532
23012,-2.6363177490234375,10.733429718017579,1.2759466552734375
23079,-3.902384948730469,13.808634796142579,0.31988479614257814
23150,-1.6449293518066408,9.890682220458984,-0.4740641784667969
23212,2.4234603881835937,12.969928894042969,1.8540444946289063
23279,1.7786013793945314,13.033546600341797,-1.6610957336425782
23349,-0.9827064514160156,11.151809692382812,-0.8451425170898438
23412,0.4486170959472656,5.925577697753907,-0.34443374633789064
23479,0.7792794799804688,3.9630088806152344,-0.5535488891601563
23550,-0.09145980834960937,5.634882202148438,-2.8136988830566407
23612,-3.0189221191406252,13.652210083007812,-8.00220932006836
23679,-4.506079559326172,5.721551971435547,-8.79017074584961
23750,2.9102481079101565,20.292252044677735,-2.738704833984375
23812,10.200537872314454,1.2401710510253907,-4.832550659179688
23879,-2.1248313903808596,11.422895965576172,-1.9077827453613283
23950,-1.2070898437500002,8.704997863769531,0.3040177917480469
24012,-1.244062957763672,8.55066879272461,-0.5313949584960938
24079,-1.3665083312988282,7.746540985107422,-1.0229727172851564
24150,-1.3738430786132814,10.000853118896485,-0.7625143432617187
24212,-3.4840049743652344,10.429711303710938,0.5545967102050782
24279,-3.543281707763672,11.460168457031251,1.0223739624023438
24352,2.997366943359375,14.904505920410157,1.1987072753906252
24412,1.5521223449707031,15.49951858520508,-0.43888732910156253
24479,-0.5391787719726563,12.298275604248047,-0.2435435485839844
24557,-0.5460644531250001,4.927153930664063,-0.7423063659667969
24612,0.901575164794922,3.250640258789063,-1.806892547607422
24679,-0.21225860595703125,2.0398081970214843,-1.7738113403320312
24753,-2.0913011169433595,17.683177642822265,-8.355325012207032
24812,-2.106269989013672,2.9258157348632814,-6.030060424804688
24879,0.9978250122070313,19.329154815673828,-4.93613525390625
24953,-2.578238525390625,5.276677093505859,3.7474571228027345
25012,-2.0115170288085937,11.47648452758789,-0.7554789733886719
25079,0.11840377807617188,9.730215911865235,1.031205596923828
25153,-1.550775146484375,8.141419830322267,-0.3776646423339844
25212,-0.025596771240234375,7.785010986328126,0.03787124633789063
25279,-0.143701171875,10.912307739257812,-0.6150709533691406
25349,-3.4456846618652346,10.572664031982422,0.104183349609375
25413,-2.984344024658203,12.970078582763673,0.7807763671875
25479,-2.9801527404785157,12.94073959350586,-0.7370672607421875
25554,2.549049224853516,14.686110076904297,1.6816030883789064
25612,-1.1204200744628907,12.529095611572266,-1.8354830932617188
25679,-0.7068301391601562,7.8869490051269535,0.10837463378906251
25752,-0.36703674316406254,4.256548461914063,-1.728006591796875
25812,0.6483018493652344,2.1510269165039064,-0.7958949279785157
25879,-3.4911900329589844,10.47821044921875,-6.282285919189453
25952,-3.416345672607422,8.713380432128906,-8.639883270263672
26012,1.047821044921875,12.04500228881836,2.33514404296875
26079,-1.222507781982422,9.975406036376954,1.5193405151367188
26154,-8.81606689453125,17.3926318359375,5.67380126953125
26215,0.43529479980468755,7.831564178466797,0.029937744140625
26279,-0.27842102050781253,8.98416732788086,0.5792953491210938
26351,-2.1417462158203127,8.150999908447266,-0.2585124206542969
26412,-0.3549119567871094,8.866212615966797,0.3595523071289063
26479,-2.2384451293945316,10.188712463378907,0.5447172546386719
26549,-0.7182064819335938,11.758198699951173,-0.8690927124023438
26614,-3.796854400634766,10.515932006835937,1.547032928466797
26679,2.265838165283203,12.191397857666017,0.7372169494628906
26754,0.0143701171875,14.770684204101563,-2.0242405700683594
26812,0.8307723999023438,9.87511459350586,0.34712814331054687
26879,-0.6134243774414063,5.153483276367187,-2.199675750732422
26954,0.4878355407714844,2.276316375732422,-0.4099974060058594
27012,-1.2076885986328125,5.920787658691406,-4.769232330322266
27079,-0.6873706054687501,15.430362396240236,-9.429042205810548
27152,0.07708969116210938,6.881938934326172,0.2817141723632813
27213,-2.3465203857421875,18.60975082397461,-0.30416748046875003
27279,-6.857689361572266,5.073399810791016,2.6508375549316407
27350,-0.03682342529296875,9.251511383056641,-0.9871971130371094
27412,-0.0676593017578125,8.78538070678711,0.22513183593750002
27479,-0.7664062500000001,8.86052444458008,-0.6092330932617188
27549,-1.0255174255371093,7.2473291015625,-0.7155120849609375
27612,-2.6165588378906253,10.597063293457031,-0.8138575744628906
27679,-1.560205535888672,11.16273696899414,0.7982899475097657
27750,-3.1166688537597658,12.219539337158205,0.8792715454101563
27813,-0.21420455932617188,12.638667755126955,-0.3430865478515625
27879,0.8210426330566407,13.833632812500001,1.030906219482422
27953,-0.07708969116210938,13.294304351806641,-0.30641281127929687
28014,-0.3158432006835938,7.737709350585938,0.06376739501953126
28079,-0.07574249267578126,4.096680908203125,-1.1602372741699218
28149,-0.317340087890625,2.6262886047363283,-2.0950433349609376
28214,-3.4634976196289062,14.311588897705079,-6.713090057373047
28279,-1.5479310607910157,8.274942169189453,-6.691385192871094
28351,1.4075230407714845,15.057038726806642,-3.964655456542969
28414,4.345164184570312,4.340972900390625,-0.1526824951171875
28479,-4.225862274169922,12.771591339111328,-0.683778076171875
28553,0.8436456298828126,8.737779693603516,0.0748443603515625
28612,-1.2751982116699219,8.13633041381836,0.3791615295410156
28679,-1.2629237365722656,8.995843048095704,-0.4519102478027344
28752,-0.49906219482421876,9.585466918945313,0.6243516540527344
28814,-2.333796844482422,10.43554916381836,0.3944297790527344
28879,-0.6216572570800781,11.961775360107422,-0.9565109252929688
28953,-2.8624974060058594,10.923833770751953,-0.9147477722167969
29012,2.446213073730469,12.586875457763673,1.0187814331054688
29079,-0.8583151245117188,15.344740447998047,-2.724035339355469
29150,0.4680766296386719,9.371561737060548,0.8918453979492188
29215,-1.0024653625488282,4.478087768554688,-1.8657202148437502
29279,1.8106347656250001,2.3450234985351566,0.08726852416992188
29351,-2.063009948730469,6.836583251953125,-6.901847534179688
29412,-1.8354830932617188,15.350877685546875,-10.83641555786133
29479,-1.2425660705566406,3.3260833740234377,1.060843963623047
29552,-1.7215699768066408,19.76759307861328,1.6892372131347657
29612,-6.401737518310547,7.324867858886719,4.383783874511719
29679,-0.08352630615234376,8.926537170410157,-1.175804901123047
29751,-0.6985972595214844,8.381819915771485,0.023201751708984378
29812,-1.4593153381347657,8.200995941162109,-0.7804769897460938
29879,-1.7200730895996095,8.141419830322267,-0.5617817687988281
29953,-1.1451187133789062,9.334289245605468,0.1782792663574219
30012,-1.697919158935547,12.781919860839844,0.09610015869140626
30079,-3.3534764099121097,14.252761230468751,-0.11705657958984375
30153,0.29174331665039066,12.886402587890625,1.8877244567871094
30213,-0.6828799438476563,15.377821655273438,-0.17169296264648437
30279,0.06301895141601563,8.24560317993164,1.6516653442382814
30354,0.37616775512695316,3.8660105895996097,-1.4073733520507814
30414,0.3695814514160156,1.5355068969726564,-0.6563850402832031
30479,-1.5572117614746095,10.028246154785156,-8.164172515869142
30550,-1.9263441467285156,10.3512744140625,-7.5083862304687505
30617,3.3289274597167973,14.471755828857422,-0.7035369873046875
30679,5.827830963134766,6.174659729003906,-1.0533595275878906
30752,-0.2662962341308594,13.667478332519533,-1.3054353332519533
30812,-0.7348219299316406,8.16791473388672,-0.40625518798828125
30879,-1.0527607727050783,8.225095825195313,-0.0293389892578125
30954,-1.8977536010742189,8.065827026367188,-0.6078858947753907
31012,-1.07296875,9.786349182128907,-0.7285350036621094
31079,-2.6590704345703124,10.307864685058595,0.7888595581054688
31155,-2.0685484313964846,12.854369201660157,0.3499722290039063
31212,-2.136207733154297,11.825858001708985,-1.0735675048828126
31279,0.9996212768554688,12.76350814819336,2.342478790283203
31356,0.41029678344726567,14.093492431640625,-1.7727635192871094
31412,-0.36209701538085937,7.6914555358886725,0.9744735717773438
31479,-0.5047503662109375,3.852388916015625,-1.7310003662109377
31554,0.65863037109375,2.9285101318359374,-0.7670050048828125
31614,-1.3437556457519533,11.802207183837892,-6.7422793579101565
31679,-1.7634828186035156,11.720477142333985,-8.668324127197266
31749,-0.6933581542968751,8.179590454101563,-0.8023315429687501
31813,-1.3916560363769532,17.191450195312502,4.221820678710937
31879,-5.851631469726563,10.379565582275392,3.237617340087891
31950,-0.7707472229003907,8.934171295166015,-1.0924282836914063
32012,-1.334175567626953,8.79061981201172,-0.14444961547851562
32079,-0.4186793518066406,8.039631500244141,-0.32227981567382813
32152,-1.3009446716308595,8.35712127685547,-0.6532415771484376
32212,-2.1070184326171875,9.886790313720704,-0.25147705078125
32279,-0.8300239562988282,12.213701477050781,-0.5866300964355469
32350,-3.02011962890625,10.880124664306642,1.761387176513672
32412,-0.030237121582031252,12.488380279541015,0.1850152587890625
32479,0.5641767883300781,13.948743438720705,-0.6641688537597656
32555,0.41583526611328125,10.773546295166016,0.15133529663085937
32612,-0.8211923217773438,5.3667897033691405,-0.6954537963867188
32679,1.2540921020507814,3.7914656066894534,-1.0074050903320313
32750,-0.21989273071289064,3.836521911621094,-2.749332733154297
32812,-2.6334736633300784,16.081658020019532,-9.535321197509766
32879,-2.5197102355957033,8.57940902709961,-6.142476654052735
32953,0.4140390014648438,6.376889190673828,3.2693513488769534
33017,-6.472091217041016,12.709021453857423,3.7124299621582035
33079,-1.5634986877441408,8.241411895751954,0.14534774780273438
33153,-1.7383351135253906,9.751322021484375,-0.4240681457519532
33213,-1.287173309326172,8.087232513427734,-0.6128256225585937
33279,-1.470392303466797,8.025560760498047,-1.2066407775878907
33352,-1.2954061889648438,10.231822814941406,-0.01107696533203125
33412,-1.974693603515625,10.234966278076172,0.7539820861816406
33479,-2.7226881408691406,12.758568420410157,0.6104306030273438
33556,0.7976911926269532,14.02328842163086,0.9282197570800782
33612,1.9193087768554689,13.137729949951172,2.865341491699219
33679,-1.384021911621094,14.101276245117187,-1.670226745605469
33754,-0.7021897888183594,6.379134521484375,0.23995101928710938
33812,0.23231689453125,4.313280487060547,-2.0348684692382815
33879,0.49472122192382817,3.2130683898925785,-0.6894662475585938
33953,-2.795137481689453,12.257260894775392,-8.334069213867188
34012,-3.570375366210938,11.726614379882813,-7.085964660644532
34079,-0.5444178771972656,5.541027374267578,-2.356399841308594
34151,-0.7146139526367188,17.497413940429688,4.503834228515625
34213,-7.257507934570313,11.22590560913086,3.5045123291015625
34279,0.26914031982421877,8.8088818359375,-0.38664596557617187
34353,-0.9321116638183594,9.00617156982422,0.2267784118652344
34413,-0.7737409973144531,8.398435363769531,-0.3537144470214844
34479,-1.2804373168945313,7.676935729980469,-1.0900332641601562
34549,-1.6428337097167969,10.208621063232423,-0.9550140380859375
34614,-1.853445739746094,11.780652008056641,-0.32138168334960937
34679,-4.922363891601563,11.75565399169922,0.22168899536132813
34752,2.136507110595703,11.710897064208986,0.8318202209472657
34814,1.8374290466308594,14.147230682373047,-0.3733236694335938
34879,-0.7517367553710937,12.602143707275392,-0.9027726745605469
34953,0.030985565185546876,5.614973602294922,-1.1105406188964844
35012,0.2041754150390625,4.296515350341797,-1.2645703125
35079,-0.4939727783203125,3.7914656066894534,-2.108665008544922
35157,-1.7109420776367188,15.458503875732422,-7.544461212158203
35212,-3.454366607666016,9.033863983154298,-7.667505340576172
35279,1.3308824157714845,5.744304656982422,-0.49337402343750003
35353,-3.1237042236328127,11.371403045654297,3.799548797607422
35412,-6.251749420166016,8.422535247802735,4.6702880859375
35479,-0.20567230224609376,9.217232666015626,-0.9407936096191407
35553,-1.6241226196289062,9.389823760986328,0.0305364990234375
35612,-1.4302757263183594,8.839118957519531,-0.5180726623535157
35679,-1.5796650695800782,8.024812316894531,-1.2232562255859376
35755,-3.193908233642578,9.531279602050782,-0.365240478515625
35812,-1.7524058532714846,10.62520477294922,0.678988037109375
35879,-2.022593994140625,12.54122039794922,1.3332774353027343
35953,0.4004173278808594,14.026282196044923,-1.0545570373535156
36014,0.7828720092773438,12.027937774658204,2.406695251464844
36079,-0.2231858825683594,14.246923370361328,-1.5643968200683596
36150,-1.2364288330078126,6.919361114501953,0.06466552734375
36216,0.5854325866699219,4.5548780822753905,-2.0291802978515627
36279,0.10508148193359376,2.125430145263672,-1.469194793701172
36353,-3.3114138793945314,12.518018646240234,-8.004304962158203
36414,-0.2893482971191406,11.459869079589843,-9.962083740234375
36479,4.5170068359375,15.396682434082033,0.5899232482910156
36554,5.1889595031738285,1.483564910888672,-0.5767506408691406
36614,-4.730762329101562,16.02118377685547,1.8384768676757814
36679,0.884959716796875,7.567064208984376,0.36134857177734375
36752,-3.1918125915527344,8.841513977050782,0.3396437072753906
36812,-1.9887643432617188,8.56114700317383,-0.4644841003417969
36879,-0.7370672607421875,8.798403625488282,-0.8904981994628907
36953,-3.071163482666016,9.030870208740234,0.7481442260742188
37014,-1.1213182067871095,11.871063995361329,-0.037122802734375
37079,-1.5872991943359376,12.756023712158203,-0.6860234069824219
37151,2.8695327758789064,14.451098785400392,1.5892451477050782
37219,0.22962249755859376,14.392720184326173,-2.1682411193847657
37279,-0.7213499450683594,8.019872589111328,-0.09131011962890626
37351,0.2827619934082031,5.155728607177735,-2.7396029663085937
37415,-0.31674133300781254,2.25850341796875,-2.152074737548828
37479,-0.6253994750976563,9.143286437988282,-5.722001037597656
37554,-1.028660888671875,12.895832977294923,-8.520281982421876
37613,0.16435821533203127,4.7698310852050785,-6.556365966796875
37679,0.2124082946777344,14.651382293701172,-4.056863708496094
37754,2.0971389770507813,7.463629302978516,1.6446299743652344
37812,-3.1031968688964846,10.247390441894531,0.4939727783203125
37879,-0.6822811889648438,9.91867401123047,0.0796343994140625
37954,-1.9766395568847657,8.466543731689454,-0.5836363220214844
38014,-2.1239332580566406,8.255782012939454,-1.5883470153808594
38079,-1.999691619873047,10.354268188476563,-0.4513114929199219
38153,-2.027084655761719,10.59796142578125,0.6710545349121094
38214,-2.6851162719726562,13.236674194335938,0.4870870971679688
38279,-1.9269429016113282,13.292508087158204,-1.1729608154296876
38353,0.6062393188476562,12.811707916259767,1.2463082885742187
38414,-1.0725196838378908,13.770164794921875,-1.3013937377929687
38479,-0.6236032104492187,8.792266387939453,1.3609698486328126
38553,0.4153861999511719,4.483177185058594,-1.1228150939941406
38614,0.4567002868652344,2.2064117431640624,-0.5060975646972656
38679,-2.8005262756347657,9.954599304199219,-8.540489959716798
38753,-2.8262727355957034,10.469827880859375,-7.140750732421876
38813,-0.6357279968261719,11.526480560302735,1.5789166259765626
38879,3.802841949462891,6.060896301269532,4.135599975585937
38951,-9.177116088867187,16.190481719970705,5.563181304931641
39012,0.9821076965332032,8.783135375976563,-0.8247848510742188
39079,-0.8458909606933595,8.661887512207032,0.0061372375488281256
39150,-1.287322998046875,8.57551712036133,-0.8087681579589844
39212,-0.4794529724121094,7.58787094116211,-0.8294252014160156
39279,-2.0890557861328127,10.413395233154297,-0.3215313720703125
39357,-3.4512231445312502,12.233011322021484,-0.8990304565429688
39412,-2.794838104248047,11.663146362304689,1.9425105285644533
39479,2.7129583740234375,12.366683349609376,1.863025817871094
39554,1.0042616271972657,15.363451538085938,-2.2146446228027346
39615,-1.391356658935547,10.534643096923828,0.09849517822265626
39679,0.0461041259765625,6.387966156005859,-0.40086639404296875
39753,1.3006452941894533,3.349285125732422,-0.02724334716796875
39813,-0.4819976806640625,4.132905578613282,-2.958597564697266
39879,-1.5441888427734376,16.75840072631836,-8.021219787597657
39952,-3.2952474975585937,4.623136138916016,-6.494245147705079
40012,-0.6240522766113281,16.555871887207033,-4.365222473144532
40079,0.6891668701171876,4.843178558349609,0.5153782653808594
40153,-1.3015434265136718,9.179062042236328,-2.591560821533203
40212,0.6352789306640625,9.620793457031251,-0.5131329345703125
40279,-0.8048762512207032,7.996221771240235,-0.7665559387207032
40354,-1.782942352294922,8.06777297973633,-0.9604028320312501
40412,-2.2815554809570315,11.199111328125001,-0.9595046997070313
40479,-2.1049227905273438,10.837762756347656,0.7530839538574219
40553,-2.8135491943359376,11.576925659179688,0.730331268310547
40614,0.7587721252441406,12.092154235839844,1.186582489013672
40679,1.5368540954589844,15.245347137451173,2.096390533447266
40753,-0.6649172973632813,12.163106689453125,-0.7936495971679688
40813,-1.0086026000976562,6.806346130371094,-0.6421646118164063
40879,1.1002120971679688,3.716022491455078,-1.1558963012695314
40950,-0.17468673706054688,3.047662353515625,-1.055006103515625
41014,-2.092947692871094,15.226935424804688,-7.915689239501954
41079,-2.0686981201171877,8.686586151123047,-7.110513610839844
41158,0.5236111450195313,10.307864685058595,-1.1228150939941406
41214,-3.7259019470214847,21.398152313232423,-0.015867004394531252
41279,-1.7251625061035156,5.796246643066406,3.230731658935547
41350,-0.6878196716308594,8.929980010986329,-1.0876382446289063
41414,-0.8487350463867188,9.968370666503906,0.5598358154296875
41479,-0.33260833740234375,7.0521350097656255,-1.026265869140625
41552,-0.18411712646484377,7.8905415344238286,-0.3525169372558594
41618,-0.6204597473144532,10.70813232421875,-0.9523196411132813
41679,-2.6376649475097658,11.06693618774414,1.16158447265625
41753,-3.6622842407226566,12.749736785888672,1.8952088928222657
41816,1.9580781555175781,14.810651092529298,0.61072998046875
41879,0.29189300537109375,15.392940216064455,-0.8044271850585938
41952,-0.7270381164550782,10.233619079589845,0.34248779296875004
42012,-0.1407073974609375,4.719685363769531,-1.089584197998047
42079,1.6760646057128907,3.329825592041016,-0.7102729797363282
42151,-0.8054750061035156,2.9662316894531253,-3.9137612915039064
42212,-3.8646633911132815,17.543667755126954,-9.064101104736329
42279,-2.7187962341308594,5.8425004577636726,-7.083120574951172
42351,-2.258204040527344,15.13697250366211,-5.354215850830078
42414,-1.2867242431640626,8.60530517578125,1.6661851501464844
42479,-1.1356883239746094,8.312514038085938,-1.4016851806640627
42553,-1.4483880615234375,9.685458984375,0.5153782653808594
42612,-1.7042060852050782,8.029752044677736,-0.3010240173339844
42679,-2.0646565246582034,8.20294189453125,-0.5475613403320313
42753,-1.9712507629394531,10.61233154296875,-0.6988966369628906
42812,-1.5905923461914064,10.062225494384766,0.9630972290039063
42879,-1.610351257324219,12.493769073486328,0.6503974914550782
42953,-0.7619155883789063,13.627062377929688,-0.6414161682128906
43012,0.757873992919922,13.428874511718751,1.853445739746094
43079,-0.4328997802734375,14.100078735351563,-1.6795074462890627
43150,-1.110091552734375,7.4748559570312505,-0.04340972900390625
43214,0.2848576354980469,4.246968383789063,-1.6265176391601563
43279,0.07394622802734375,1.324146423339844,-0.7605683898925781
43352,-3.13987060546875,13.57302474975586,-8.965755615234375
43412,-0.8032296752929687,8.28152847290039,-7.210505676269531
43479,1.3564791870117188,18.497334594726563,-7.292535095214844
43554,-2.555336151123047,10.357860717773438,2.900069274902344
43612,-1.234632568359375,8.7035009765625,-0.5321434020996094
43679,-0.142503662109375,10.43884231567383,0.4290078735351563
43753,-2.339634704589844,7.37905517578125,-0.8096662902832031
43812,-1.3712983703613282,8.73179214477539,-0.9165440368652344
43879,-0.051043853759765626,8.971443786621094,0.0
43951,-2.415377197265625,10.774444427490234,0.643062744140625
44014,-1.4780264282226563,11.988270263671875,-1.2900173950195313
44079,-3.3644036865234375,11.89696014404297,0.9253756713867188
44157,1.3184582519531252,13.20748489379883,1.8540444946289063
44212,-0.014070739746093752,15.953524475097657,-2.137405242919922
44279,0.5195695495605469,8.477171630859376,0.5608836364746094
44355,-0.6536906433105469,3.9020855712890627,-1.85853515625
44417,0.7096742248535156,1.845212860107422,-0.8155041503906251
44479,-1.5730787658691407,9.308842163085938,-7.505392456054688
44553,-0.5981561279296875,12.921280059814453,-7.940387878417969
44614,0.24818389892578127,8.232729949951173,-2.1905447387695314
44679,-2.137405242919922,15.755486297607423,1.1205697631835938
44752,-8.470136260986328,16.00247268676758,2.994672546386719
44814,-0.03547622680664063,7.001689910888672,-0.6836283874511719
44879,-0.437091064453125,9.420809326171875,0.044307861328125
44949,-0.9165440368652344,8.07361083984375,-0.9596543884277344
45012,-1.7101936340332031,8.268655242919923,-1.4124627685546876
45079,-2.34472412109375,10.473420410156251,-0.33021331787109376
45152,-1.1514056396484376,12.904514923095704,-0.6126759338378907
45215,-4.039200439453126,11.049871673583985,2.005828857421875
45279,2.4709117126464846,13.353431396484376,2.248773651123047
45351,1.3293855285644531,14.473402404785157,-0.1149609375
45413,-1.4762301635742188,11.814032592773438,-0.5941145324707031
45479,-0.12199630737304688,6.101461944580079,-0.8723858642578125
45553,1.665586395263672,3.3415013122558594,-0.1886077880859375
45612,0.3362008666992188,3.1487022399902345,-2.089205474853516
45679,-3.9422021484375,17.540823669433596,-9.194479980468751
45751,-5.427713012695313,7.661368103027344,-7.215595092773438
45813,-2.061812438964844,11.978690185546876,0.21390518188476565
45879,-2.039059753417969,10.750643920898439,3.8898110961914063
45953,-0.5072950744628907,6.9482510375976565,-1.131347351074219
46012,-0.9107061767578125,10.141710205078125,0.8331674194335938
46079,-1.3584251403808594,8.011040954589845,-0.5134323120117188
46154,-1.829794921875,8.176896057128907,-1.2340338134765625
46214,-1.0798544311523437,10.947783966064454,-0.3799099731445313
46279,-3.4754727172851565,9.880204010009766,1.2135264587402343
46353,-3.1198123168945315,12.636123046875001,1.238075408935547
46414,0.5815406799316406,14.000835113525392,0.3448828125
46479,2.6101222229003906,13.289065246582032,2.0493882751464847
46552,-1.520687713623047,13.302237854003907,-1.7413288879394533
46614,-1.0151889038085937,7.631729736328126,0.4278103637695313
46679,0.6867718505859375,3.9989341735839847,-1.2912149047851562
46757,0.2755769348144531,2.11959228515625,-1.586700439453125
46816,-2.1320164489746096,14.50319046020508,-7.891888732910156
46879,-1.7845889282226564,8.681197357177735,-10.07869125366211
46951,1.695374450683594,17.318535919189454,-0.1287322998046875
47012,9.74862762451172,3.2346235656738282,-4.0320153808593755
47079,-3.759581909179688,14.28344741821289,-1.1894265747070314
47155,0.44442581176757817,8.315807189941406,0.365240478515625
47213,-1.319506072998047,8.594826965332032,-0.006586303710937501
47279,-1.9351757812500001,8.069120178222656,-1.1259585571289064
47351,-1.5621514892578126,9.944869537353517,-0.3391946411132813
47413,-2.353106689453125,10.32058822631836,1.0678793334960939
47479,-0.647852783203125,12.52161117553711,-0.5270539855957032
47553,-0.9431886291503907,13.346096649169922,-1.2663665771484376
47612,3.4347573852539064,12.154574432373048,2.271526336669922
47679,-0.8223898315429687,15.556400299072266,-2.3076013183593753
47750,-0.10732681274414063,8.70918914794922,1.3525872802734376
47813,-0.015717315673828124,4.447850646972657,-1.7545014953613283
47879,1.282532958984375,2.1073178100585936,-0.20971389770507814
47949,-1.505419464111328,9.65043182373047,-8.332871704101564
48012,0.11256591796875001,14.686409454345704,-10.007589111328125
48079,1.5661930847167969,11.62153289794922,3.1400202941894535
48153,6.054609375,4.911436614990235,-0.8581654357910157
48212,-4.774770812988281,14.39691146850586,2.5848248291015627
48279,-0.1646575927734375,7.914641418457031,-0.46957351684570314
48351,-1.9453546142578126,8.537196807861328,-0.5309458923339844
48412,-1.0750643920898437,8.439001007080078,-1.1204200744628907
48479,-0.7128176879882813,7.466922454833985,-0.8545729064941406
48556,-2.377955017089844,10.393636322021484,0.6768923950195312
48614,-0.6649172973632813,12.092752990722657,-0.7036866760253907
48679,-3.4917887878417972,10.21281234741211,-0.2977308654785156
48754,3.7675154113769533,12.832664337158203,2.5102798461914064
48814,-1.179547119140625,14.911541290283203,-2.5801844787597656
48879,0.743653564453125,10.416688385009767,1.5417938232421875
48957,-0.5408253479003906,4.376598815917969,-1.5878979492187502
49014,1.6155903625488282,1.9558328247070313,0.20627105712890625
49079,-0.6174659729003906,5.787115631103516,-4.350552978515625
49152,-0.7572752380371094,16.364420013427736,-10.704839172363283
49213,0.8729846191406251,3.1713052368164063,1.4555731201171875
49279,-1.5055691528320314,18.249150695800783,-1.482217712402344
49353,-6.614145812988282,13.169613647460938,4.376000061035157
49413,-0.7340734863281251,7.857610015869141,-0.7418572998046875
49479,-0.6997947692871094,9.18684585571289,0.5810916137695313
49558,-1.5238311767578125,7.790250091552735,-0.5331912231445313
49614,-0.8722361755371094,8.088729400634765,-0.7911048889160157
49679,-1.8902691650390626,10.031389617919922,-0.36703674316406254
49751,-1.0253677368164062,12.438983001708985,-0.8399034118652344
49814,-3.8208045959472656,11.836336212158203,1.004561004638672
49879,1.5661930847167969,12.32087860107422,1.8030006408691408
49952,0.12678634643554687,14.472504272460938,-0.6496490478515625
50012,-0.06556365966796876,11.923604736328125,0.3852987670898438
50079,-0.5471122741699219,6.5149021911621094,0.2998265075683594
50152,1.6983682250976564,3.216660919189453,-0.24953109741210938
50212,0.18965560913085938,2.9431796264648438,-2.0553758239746096
50279,-4.3629771423339845,16.720828857421875,-7.340585174560547
50352,-4.6587620544433594,2.0901036071777344,-6.887477416992188
50414,1.870360565185547,21.26103744506836,-3.907324676513672
50479,9.848619689941406,0.004041595458984375,-5.795049133300782
50552,-0.3243754577636719,12.111913146972658,-2.7358607482910156
50613,-0.580792236328125,8.648714904785157,0.32063323974609376
50679,-1.184486846923828,8.531358947753906,0.08232879638671875
50754,-1.2918136596679688,7.781568145751954,-0.7445516967773438
50812,-1.3329780578613282,10.637030181884766,-0.38559814453125
50879,-2.2564077758789063,10.138417053222657,0.9509724426269531
50953,-1.3334271240234377,12.77263916015625,0.3998185729980469
51012,-3.6432737731933598,12.971126403808594,-1.2982502746582032
51079,2.3204745483398437,12.747491455078126,2.2647903442382815
51151,-0.8596623229980469,13.811778259277345,-1.6762142944335938
51214,-0.4221221923828125,9.161099395751954,1.2551399230957032
51279,-0.04026626586914063,4.6958848571777345,-1.7582437133789064
51352,0.7535330200195313,1.858385467529297,-0.5394781494140626
51414,-1.0244696044921875,10.659782867431641,-6.328689422607423
51479,-1.3253439331054688,13.069322204589845,-8.857081604003907
51553,0.4674778747558594,8.670120391845703,-0.5813909912109375
51612,-1.1802955627441407,18.602865142822267,-3.775598602294922
51679,0.4685256958007813,4.29471908569336,1.4579681396484376
51753,0.39712417602539063,7.642357635498048,-1.3654605102539064
51814,-1.1097921752929687,9.69069808959961,0.9502239990234376
51879,-1.2960049438476564,8.628057861328125,-0.5827381896972657
51951,-1.8651214599609376,8.390651550292969,-0.8129594421386719
52012,-1.3166619873046876,9.956844635009766,0.33799713134765624
52079,-2.0456460571289066,11.013048248291016,1.3512400817871095
52152,-2.691702575683594,12.209360504150391,0.9942324829101563
52212,-1.0460247802734375,13.482612762451172,-0.13322296142578124
52279,1.7580940246582033,14.076727294921875,1.5678396606445313
52353,-0.5617817687988281,12.881911926269533,-0.985550537109375
52412,-0.5542973327636719,7.609875183105469,0.7415579223632813
52479,0.8768765258789063,4.328848114013672,-1.3443544006347656
52552,0.2674937438964844,2.6479934692382816,-1.442849578857422
52612,-4.129163360595704,14.42804672241211,-6.8928662109375
52679,-2.602338409423828,9.46796127319336,-7.178621978759766
52759,1.581760711669922,16.80435516357422,-4.122726745605469
52813,7.221582641601563,5.216502227783203,-2.6801765441894534
52879,-4.16493896484375,13.49638412475586,2.405348052978516
52953,-0.10553054809570313,9.684560852050781,0.4421804809570313
53012,-1.3427078247070314,8.561745758056642,0.8277786254882813
53079,-1.0361453247070314,8.721313934326172,-0.4495152282714844
53149,-0.5270539855957032,7.522307281494141,-1.021475830078125
53214,-2.8683352661132813,10.392588500976563,0.2915936279296875
53279,-0.4555027770996094,11.798614654541016,-0.2890489196777344
53353,-4.031716003417969,11.862831115722656,0.7217990112304687
53412,-1.6546591186523438,12.348271636962892,-0.49247589111328127
53479,1.6148419189453125,13.360167388916016,2.574346618652344
53552,0.7683522033691407,13.656551055908205,-1.70525390625
53612,-1.0731184387207031,7.971074066162109,0.015717315673828124
53679,0.43260040283203127,4.2502615356445315,-2.1680914306640626
53751,0.17154327392578125,2.1612057495117187,-1.51365234375
53812,-0.9074130249023438,10.278376007080078,-7.347620544433594
53879,-0.02424957275390625,9.98289047241211,-9.822573852539064
53954,1.6158897399902346,12.906610565185547,-2.1788690185546877
54014,1.931433563232422,7.881859588623048,4.139042816162109
54079,-5.910608825683594,13.848002929687501,3.034190368652344
54154,-0.0061372375488281256,8.04816375732422,-0.13561798095703126
54214,-0.7131170654296876,9.12697036743164,-0.3908372497558594
54279,-1.1085946655273438,8.676706695556641,-1.0988648986816407
54351,-1.5563136291503907,7.945028228759766,-1.0858419799804688
54412,-1.9869680786132813,10.958711242675783,-0.39667510986328125
54479,-1.5929873657226563,10.698402557373047,0.9111552429199219
54552,-3.9841149902343753,12.55993148803711,0.45535308837890626
54614,-0.8656498718261719,12.385244750976563,-0.2597099304199219
54679,1.9987934875488282,12.48179397583008,2.1028271484375
54750,-0.11391311645507814,13.641731872558594,-1.591490478515625
54812,-0.8301736450195313,9.770033111572266,1.0006690979003907
54879,0.18426681518554688,4.724475402832032,-1.7642312622070313
54953,0.47975234985351567,2.331701202392578,-0.7623646545410157
55012,-1.9429595947265625,10.324629821777345,-5.9586589050292975
55079,-0.07394622802734375,11.769724731445313,-9.126820678710938
55150,1.009500732421875,5.519771575927734,-1.3921051025390625
55213,-1.5883470153808594,18.669776000976565,-4.5092230224609375
55279,-4.136198730468751,4.577181701660156,1.8420693969726563
55354,-0.3742218017578125,8.372688903808594,-1.1773017883300783
55412,0.24698638916015625,10.233918457031251,-0.02963836669921875
55479,-1.6414865112304688,8.408314819335938,-0.2748284912109375
55554,-1.372196502685547,8.737779693603516,-0.5269042968750001
55613,-0.6460565185546875,8.975485382080079,-0.3841012573242188
55679,-2.6491909790039063,9.916877746582031,0.13442047119140627
55751,0.26539810180664064,12.113110656738282,-0.28919860839843753
55812,-3.3209939575195313,11.075318756103517,1.1073971557617188
55879,0.396375732421875,12.707524566650392,0.6776408386230469
55949,0.49052993774414066,12.83386184692383,0.9660910034179688
56012,0.6140231323242188,14.010265502929688,-0.4613406372070313
56079,-1.2567864990234376,8.028853912353515,-0.27033782958984376
56152,0.7640112304687501,4.329746246337891,-0.8788224792480469
56213,0.5354365539550782,2.353106689453125,-1.3296849060058595
56279,-2.2351519775390627,14.28674057006836,-5.953569488525391
56352,-1.1081455993652345,6.44305160522461,-8.216713256835938
56412,1.6525634765625001,11.82136734008789,0.3879931640625
56479,2.0811222839355468,5.480104064941407,3.619622955322266
56551,-8.009544067382812,15.353572082519532,3.1018496704101564
56613,0.9223818969726563,7.709268493652345,-0.77838134765625
56679,-0.7147636413574219,9.65477279663086,0.12618759155273437
56755,-0.6608757019042969,8.756790161132812,-0.6161187744140625
56812,-1.06578369140625,8.052355041503906,-0.8626560974121095
56879,-1.098116455078125,10.771899719238283,0.02185455322265625
56953,-1.5539186096191406,10.86515579223633,0.8020321655273438
57013,-1.742227020263672,12.367880859375001,0.700393524169922
57079,-2.528841247558594,10.891351318359376,-0.25222549438476566
57152,2.273921356201172,11.787986755371094,1.4233900451660157
57212,2.442470855712891,13.101505279541016,-2.538571014404297
57279,-0.7864645385742188,9.995164947509766,0.3656895446777344
57356,-0.016914825439453125,5.129682769775391,-2.6074278259277346
57414,0.5649252319335938,2.954855346679688,-0.8903485107421876
57479,-0.2986289978027344,5.99278793334961,-4.251009979248047
57554,-1.5661930847167969,13.997841339111329,-9.499246215820312
57614,-1.785337371826172,3.2120205688476564,-5.186863861083984
57679,0.7354206848144531,18.082247772216796,-5.823489990234375
57751,1.4361135864257812,4.481680297851563,0.9030720520019532
57813,-2.502645721435547,11.458821258544923,-1.3036390686035157
57879,-0.3335064697265625,9.758058013916017,0.26435028076171874
57953,-1.586700439453125,8.78208755493164,-0.6601272583007813
58012,-1.184187469482422,9.017847290039063,-1.056053924560547
58079,-1.0217752075195312,8.180787963867187,0.047900390625000004
58151,-3.0555958557128906,10.002948760986328,0.926722869873047
58212,-0.3459306335449219,12.526251525878907,-0.8649014282226563
58279,-3.8107754516601564,10.134674835205079,0.8024812316894532
58352,4.865182800292969,13.16347640991211,0.8774752807617188
58412,0.9719288635253907,13.824052734375,-2.815345458984375
58479,-0.2613565063476563,10.986703033447267,0.6246510314941407
58551,-0.43529479980468755,4.549938354492188,-2.0600161743164063
58612,1.4793736267089845,3.0225146484375003,-0.4421804809570313
58679,-0.6876699829101562,4.525389404296876,-3.090623016357422
58754,-1.3350736999511719,17.51028717041016,-9.84547622680664
58813,-2.895279235839844,3.357368316650391,-6.725963287353516
58879,0.36643798828125,18.65196304321289,-4.500541076660157
58951,-0.06361770629882812,5.251828765869141,1.0770103454589843
59012,-1.411864013671875,10.063572692871094,-2.0901036071777344
59079,-0.8758287048339845,9.400002593994142,1.2552896118164063
59154,-1.6039146423339845,8.973838806152344,-0.6089337158203125
59213,-1.0103988647460938,8.505462799072266,-0.8289761352539063
59279,-1.3082794189453126,10.155032501220704,0.21764739990234377
59352,-1.930236053466797,10.275980987548829,0.7318281555175782
59417,-0.8913963317871094,12.544513549804687,0.19639160156250002
59479,-0.06870712280273437,10.936257934570314,1.3413606262207032
59554,1.4504837036132814,11.99231185913086,1.3513897705078126
59614,2.112107849121094,14.803166656494142,-2.5596771240234375
59679,-0.9621990966796875,9.636361083984376,0.7571255493164063
59754,-0.0425115966796875,4.590803375244141,-2.8268714904785157
59816,0.7110214233398438,2.6402096557617187,-1.1970606994628907
59879,0.5141807556152344,5.998625793457031,-4.597539367675782
59948,-0.130528564453125,14.722334747314454,-10.044113159179688
60012,-3.306174774169922,0.950673065185547,-5.63548095703125
60079,1.0240205383300782,18.234930267333986,-5.587879943847657
60153,2.702330474853516,1.9401155090332032,0.8363108825683594
60212,-3.1367271423339846,12.514725494384766,-2.588567047119141
60279,0.506546630859375,9.47993637084961,0.3975732421875
60351,-1.467099151611328,8.530610504150392,-0.7201524353027344
60412,-1.0874885559082033,8.63254852294922,-0.9349557495117188
60479,-1.5385006713867189,10.745255126953126,0.21824615478515627
60552,-1.8947598266601564,9.492659912109376,0.8893006896972657
60614,-1.3959970092773437,12.783865814208985,0.5370831298828125
60679,-3.1624736022949222,11.277847595214844,0.6746470642089845
60754,2.7607090759277346,11.270662536621094,1.144669647216797
60812,1.6527131652832032,13.53754852294922,-2.385589141845703
60879,-0.6304888916015625,10.683134307861328,0.5206173706054688
60951,-0.11960128784179688,5.562732238769532,-1.9974462890625
61012,1.141226806640625,2.697839813232422,-0.5249583435058593
61079,-1.0011181640625,4.9576904296875,-3.9329214477539063
61154,-0.16675323486328125,15.226935424804688,-9.867181091308595
61212,-2.2303619384765625,1.4389576721191406,-4.620890808105469
61279,0.5394781494140626,20.729492797851563,-7.3902818298339845
61354,-2.674937438964844,0.41149429321289066,2.0477416992187503
61412,-2.537523193359375,13.201647033691406,-2.575843505859375
61479,0.3983216857910156,8.675060119628906,-0.5828878784179687
61553,-0.8619076538085938,8.215216369628907,-0.20866607666015627
61612,-0.5707630920410156,9.042545928955079,-0.25267456054687504
61679,-0.3305126953125,8.309071197509766,0.142503662109375
61753,-0.8577163696289063,10.240355072021485,-0.16615447998046876
61812,0.12888198852539062,12.16669921875,-0.7324269104003907
61878,-3.8612205505371096,11.485316162109376,1.6467256164550783
61953,1.6994160461425782,12.233011322021484,1.577120361328125
62012,1.1502081298828126,12.822335815429689,0.37616775512695316
62079,-1.1373348999023438,13.120665435791016,-0.5575904846191406
62153,-0.9159452819824219,7.779173126220703,-0.8680448913574219
62212,1.1771520996093752,5.1272877502441405,-0.6786886596679688
62279,0.571212158203125,3.9213954162597657,-0.6264472961425781
62351,-2.534828796386719,11.444451141357423,-8.10759017944336
62412,-2.697989501953125,10.727442169189453,-7.290140075683594
62479,-1.7760566711425783,6.3947021484375,-2.774480438232422
62553,2.50758544921875,6.987768859863282,4.250860290527344
62612,-8.927734680175782,6.54364242553711,2.8145970153808597
62679,0.4812492370605469,7.865543518066406,-1.4108161926269531
62754,-0.8403524780273438,9.632618865966798,-0.21031265258789064
62812,-1.0638377380371093,8.345146179199219,-0.4870870971679688
62879,-0.8532257080078125,8.075856170654298,-0.01945953369140625
62951,-0.6384223937988281,10.821446685791017,-0.6979985046386719
63013,-1.967358856201172,10.301128692626953,0.6503974914550782
63079,-1.5980767822265627,12.36353988647461,0.2986289978027344
63152,-2.9789552307128906,11.679911499023438,-0.29713211059570316
63213,3.413800964355469,12.049642639160156,1.9489471435546877
63279,0.9346563720703126,13.749208374023437,-2.616409149169922
63354,-0.7649093627929688,9.761800231933595,1.0705737304687502
63412,-0.28949798583984376,5.789660339355469,-1.7227674865722657
63479,1.418899383544922,3.6076478576660156,0.05748046875
63554,0.06556365966796876,8.739575958251953,-3.6119888305664065
63612,-1.0039622497558593,12.932207336425781,-9.679321746826172
63679,-4.226311340332032,5.3036210632324226,-7.794591064453125
63751,2.0142114257812502,18.573077087402346,-5.77963119506836
63812,3.373983764648438,1.5474819946289062,-0.5090913391113282
63879,-2.9988638305664064,13.798905029296876,-1.8639239501953127
63954,-0.0185614013671875,9.447753295898439,-0.06691085815429688
64013,-1.750609588623047,7.785160675048829,-0.35625915527343754
64079,-0.571212158203125,9.228758697509766,-0.6960525512695312
64151,-1.518292694091797,9.361532592773438,-0.48259643554687504
64212,-3.2459999084472657,9.764943695068359,0.7122189331054688
64279,0.46418472290039064,11.940519561767578,-0.044008483886718755
64352,-3.2022908020019534,10.302625579833984,0.7771838378906251
64412,1.6690292358398438,12.25905715942383,0.6057902526855469
64479,1.7119898986816406,13.065879364013673,-0.2944377136230469
64553,0.4333488464355469,12.134815521240235,-0.9113049316406251
64612,-0.987945556640625,7.229516143798828,-1.0780581665039064
64679,0.8726852416992188,5.17084716796875,-1.3284873962402344
64754,0.3990701293945313,4.671186218261719,-2.3867866516113283
64817,-3.244802398681641,14.389726409912111,-6.11448486328125
64878,-1.6973204040527345,10.073751525878906,-8.163873138427736
64947,-1.1415261840820312,6.482120361328126,-1.7666262817382814
65012,-3.1967523193359377,20.940254516601563,-1.5886463928222656
65079,-0.2552192687988281,3.306923217773438,0.45265869140625004
65149,1.1804452514648438,8.650511169433594,-3.945644989013672
65212,0.29069549560546876,9.643995208740234,-1.0407856750488282
65279,-1.3982423400878907,7.869435424804688,-1.1373348999023438
65352,-0.041912841796875,8.704249420166017,-0.32332763671875003
65414,-0.0520916748046875,8.880133666992188,-0.4571493530273438
65479,-2.292632446289063,11.099568328857423,0.5325924682617188
65554,-1.7250128173828125,11.589200134277345,-0.4028123474121094
65612,-2.6291326904296874,10.984158325195313,0.290994873046875
65679,0.6635700988769532,11.496692504882812,0.27378067016601565
65753,0.8414002990722657,11.931687927246095,0.4355941772460938
65812,-0.4141886901855469,11.598181457519532,-1.505120086669922
65879,-1.0539582824707032,9.505533142089844,-1.0864407348632814
65953,-0.3841012573242188,5.330265655517579,-1.3949491882324219
66014,-0.8487350463867188,5.006488952636719,-1.0065069580078125
66079,0.5944139099121094,9.455088043212891,-6.037694549560547
66154,-4.948858795166016,10.582094421386719,-3.8782850646972657
66212,-4.302353210449219,3.3452435302734376,-3.4456846618652346
66279,0.7327262878417969,20.523072052001954,-1.367406463623047
66351,6.195616149902344,-1.4325210571289064,-5.54491928100586
66412,-5.267546081542969,17.335450744628908,1.7287550354003907
66479,-0.1323248291015625,8.070018310546875,0.8135581970214845
66552,-0.908909912109375,8.333769836425782,-0.6926097106933594
66614,-1.030906219482422,8.045619049072267,-0.4972659301757813
66678,0.027393035888671875,8.358468475341798,-0.4998106384277344
66749,-2.6301805114746095,10.709030456542969,0.40356079101562503
66812,-1.0603948974609376,12.26339813232422,-0.30790969848632815
66879,-2.0550764465332034,11.909833374023439,0.6255491638183595
66951,1.1918215942382813,11.513906707763672,1.4723382568359376
67012,0.34757720947265625,14.249468078613281,-2.920576629638672
67079,0.884959716796875,10.657088470458985,0.7836204528808595
67150,-0.24578887939453126,5.162913665771485,-1.5705340576171876
67212,1.122964782714844,2.298769683837891,-0.271834716796875
67279,-0.7758366394042969,5.744903411865234,-4.067940673828125
67351,0.16450790405273438,15.911312255859375,-9.319320373535156
67412,-0.3603007507324219,2.428250427246094,-3.2492930603027346
67479,0.024998016357421875,19.054925079345704,-6.364914093017578
67550,0.10059082031250001,3.338357849121094,1.538650360107422
67612,-2.0977377319335937,11.187285919189454,-2.531835021972656
67679,-0.908909912109375,9.567204895019533,-0.3369493103027344
67750,-1.8567388916015626,8.690777435302735,-0.5821394348144532
67812,-0.7054829406738281,8.19141586303711,-0.6225553894042969
67878,-1.0291099548339844,10.489437103271484,0.6815327453613281
67950,-1.2031979370117187,10.159822540283203,1.071471862792969
68012,-0.1933978271484375,11.886332244873048,-0.23620880126953125
68079,-3.3212933349609375,11.61629379272461,1.2316387939453126
68150,1.5064672851562502,12.4588916015625,0.85502197265625
68212,1.4016851806640627,12.236454162597656,-0.45759841918945315
68279,-0.7270381164550782,11.379336547851564,0.18142272949218752
68350,-0.9144483947753906,6.184239807128907,-3.2126193237304688
68412,1.050066375732422,3.933370513916016,-0.18591339111328126
68479,0.12064910888671876,4.402794342041016,-2.5704547119140626
68549,-1.4685960388183594,15.703993377685547,-8.325387268066407
68612,-4.207300872802735,4.9282017517089844,-6.791377258300781
68679,1.8949095153808595,14.858252105712891,-2.99137939453125
68751,2.7044261169433597,4.233496398925782,-5.575755157470703
68812,-0.6255491638183595,13.145364074707032,1.1874806213378908
68879,-0.5300477600097656,9.4794873046875,0.3477268981933594
68949,-1.097966766357422,8.41130859375,0.5044509887695313
69011,-1.9535874938964846,8.477321319580078,0.013471984863281251
69079,0.39428009033203126,9.600286102294922,1.3953982543945314
69149,-1.5741265869140626,10.926228790283204,1.2240046691894533
69212,-0.9306147766113282,12.14843719482422,-1.150806884765625
69279,-3.9972875976562503,11.406130828857423,1.507664794921875
69349,3.119363250732422,12.393926696777344,2.1357586669921877
69412,2.0175045776367186,13.73917922973633,0.22153930664062502
69479,-0.18456619262695315,11.63021484375,-0.09984237670898438
69550,-0.580642547607422,6.715634765625,-1.6175363159179688
69612,0.8364605712890626,3.7805383300781252,-1.1358380126953125
69679,-0.09849517822265626,3.713328094482422,-2.66086669921875
69750,-1.2719050598144532,14.237792358398439,-7.9590989685058595
69812,-1.7841398620605469,8.002359008789062,-6.836732940673828
69879,-0.14160552978515625,10.183922424316407,-0.40894958496093753
69950,2.315534820556641,6.979835357666016,3.9698945617675783
70012,-7.534881134033204,14.627581787109376,4.158652038574219
70079,0.07035369873046875,7.977660369873047,-0.5358856201171875
70149,-0.4339476013183594,9.07667495727539,0.077838134765625
70212,-0.9481283569335938,8.803193664550781,-0.6242019653320313
70279,-0.6150709533691406,7.821984100341798,-0.8231382751464844
70349,-1.6757652282714846,10.859766998291017,-0.8589138793945313
70412,-2.1752764892578127,10.474617919921876,0.19309844970703127
70479,-2.790048065185547,12.16235824584961,0.25162673950195313
70554,-0.689615936279297,12.796289978027344,-0.3579057312011719
70612,2.2341041564941406,10.28855484008789,1.3596226501464845
70679,0.6873706054687501,13.440699920654298,-2.408940582275391
70751,-0.9410929870605469,9.566007385253906,0.4225712585449219
70812,-0.045205993652343755,6.160888366699219,-1.696871337890625
70878,1.1006611633300782,3.636388092041016,-0.5336402893066406
70951,-0.6098318481445313,10.878178710937501,-4.138743438720703
71012,-3.1561866760253907,11.768527221679689,-7.366481323242188
71079,-4.1498204040527344,5.215753784179688,-6.726112976074219
71149,1.0734178161621095,13.278137969970704,-0.09744735717773438
71212,4.435875549316407,3.896397399902344,2.988834686279297
71279,-10.664273529052736,13.983920288085939,4.810995483398438
71354,-0.08128097534179687,9.26633056640625,-0.32332763671875003
71414,-0.5942642211914063,8.746311950683594,0.13801300048828125
71479,-0.8164022827148438,9.187444610595703,-0.34338592529296874
71550,-0.9457333374023438,8.761729888916015,-0.9644444274902344
71614,-0.6318360900878907,9.30749496459961,0.6143225097656251
71679,-1.7287550354003907,10.557994537353515,0.13906082153320312
71752,-2.1850062561035157,12.930860137939455,-0.0940045166015625
71813,-3.087928619384766,10.466834106445313,1.1970606994628907
71879,2.2561083984375,10.914852447509766,1.3335768127441407
71954,1.717079315185547,13.427976379394533,-0.7899073791503907
72014,-1.9193087768554689,11.885134735107423,-0.5971083068847657
72079,-0.4758604431152344,8.011490020751953,-0.8765771484375
72151,1.1774514770507813,4.630321197509766,-0.45026367187500005
72212,0.4667294311523438,5.791456604003907,-0.8458909606933595
72279,-2.259401550292969,12.302466888427736,-9.236093444824219
72353,-3.8043388366699222,8.616980895996095,-6.6824038696289065
72414,-1.5823594665527345,7.334597625732422,-3.273842010498047
72479,1.5579602050781252,18.556910705566406,-4.4247985839843755
72550,-7.6685531616210945,8.466992797851564,3.7046461486816407
72613,0.11256591796875001,8.611442413330078,-1.0409353637695313
72678,-0.43005569458007814,8.928932189941406,0.6641688537597656
72753,-0.080233154296875,9.016350402832032,-0.8653504943847656
72814,-0.611927490234375,7.867339782714844,-1.1050021362304687
72879,-1.502725067138672,10.615924072265626,0.39817199707031253
72949,-1.7648300170898439,11.72646469116211,0.3673361206054688
73012,-2.279160461425781,12.387340393066406,0.7442523193359375
73079,-1.6630416870117188,12.962145080566406,-1.1409274291992189
73149,2.033072204589844,12.188553771972657,2.1451890563964846
73212,0.33440460205078126,13.568833465576173,-2.089504852294922
73279,-0.7295828247070313,9.483379211425781,1.3433065795898438
73349,0.44382705688476565,5.30496826171875,-1.8028509521484375
73412,0.22123992919921875,3.024310913085938,-0.6560856628417969
73479,-1.3266911315917969,10.820249176025392,-5.719306640625001
73559,-1.4450949096679688,11.190279693603516,-6.5045736694335945
73616,-3.6766543579101563,-0.08113128662109376,-4.287983093261719
73679,7.334298248291016,27.998377075195314,-5.871689758300781
73754,-2.135309600830078,-0.10493179321289063,-1.2126283264160156
73812,-1.4578184509277345,15.426021423339845,-2.255958709716797
73878,0.3960763549804688,6.3002485656738285,-1.2331356811523437
73955,-2.70158203125,10.436447296142578,-0.9000782775878907
74012,-0.9924362182617188,9.036708068847657,-1.4060261535644532
74079,-0.9231303405761719,9.76015365600586,-0.6212081909179688
74153,-1.0147398376464845,9.745633850097656,-0.21195922851562501
74214,-1.21906494140625,9.752070465087892,-0.003592529296875
74279,-0.93645263671875,9.90145980834961,-0.9768685913085938
74349,-1.0077044677734375,9.923314361572267,-0.3941304016113281
74417,-0.6087840270996094,9.673483886718751,-0.2513273620605469
74479,-0.8599617004394532,10.03797592163086,0.2999761962890625
74550,-0.7490423583984376,9.865235137939454,0.2507286071777344
74614,-0.22094055175781252,9.665400695800782,0.02155517578125
74679,-0.039667510986328126,9.896819458007814,0.23306533813476563
74751,0.2436932373046875,9.786798248291015,0.16181350708007813
74812,-0.23141876220703125,9.933792572021485,-0.17558486938476564
74879,-0.19833755493164062,9.81284408569336,-0.09819580078125001
74952,-0.16420852661132812,9.796677703857423,-0.15822097778320313
75012,-0.062420196533203125,9.858050079345704,-0.23366409301757815
75079,-0.11211685180664063,9.80326400756836,-0.32168106079101566
75154,0.023800506591796878,9.904752960205078,-0.3357518005371094
75212,-0.18875747680664062,9.63037353515625,-0.04266128540039063
75279,-0.12259506225585938,9.800419921875001,-0.21929397583007815
75352,-0.106578369140625,9.75970458984375,-0.22947280883789065
75412,-0.042361907958984375,9.765542449951173,-0.18202148437500001
75479,0.06661148071289062,9.83290237426758,-0.17094451904296876
75555,0.020207977294921877,9.803413696289063,-0.22947280883789065
75612,0.027692413330078127,9.821376342773439,-0.20731887817382813
75679,-0.0034428405761718754,9.805060272216798,-0.19085311889648438
75749,-0.011975097656250001,9.806257781982422,-0.18441650390625
75814,-0.027093658447265627,9.800419921875001,-0.16660354614257813
75879,0.0034428405761718754,9.835447082519531,-0.15148498535156252
75950,-0.0449066162109375,9.818681945800781,-0.15058685302734376
76012,-0.008232879638671876,9.809700622558594,-0.22288650512695313
76079,-0.09310638427734376,9.868677978515626,-0.2363584899902344
76158,-0.021704864501953126,9.778715057373047,-0.15597564697265626
76212,-0.06721023559570313,9.823322296142578,-0.13172607421875002
76279,-0.07768844604492188,9.798174591064454,-0.15358062744140627
76353,-0.12633728027343752,9.789792022705079,-0.16316070556640624
76413,-0.015417938232421876,9.809101867675782,-0.290994873046875
76479,-0.12034973144531251,9.798623657226562,-0.14040802001953126
76553,-0.053438873291015626,9.855205993652344,-0.17214202880859375
76612,-0.067060546875,9.796378326416017,-0.18681152343750002
76679,-0.042361907958984375,9.816436614990234,-0.12244537353515626
76752,-0.02125579833984375,9.8243701171875,-0.15672409057617187
76813,0.0014968872070312501,9.819430389404298,-0.10493179321289063
76878,0.013921051025390626,9.848919067382813,-0.07229965209960938
76949,0.054935760498046875,9.799222412109376,-0.07694000244140625
77012,0.034877471923828125,9.799222412109376,-0.09624984741210937
77079,0.05134323120117188,9.820478210449219,-0.10193801879882813
77154,-0.04146377563476563,9.788295135498048,-0.11481124877929688
77212,-0.030835876464843752,9.849218444824219,-0.14055770874023438
77279,0.01107696533203125,9.787995758056642,-0.11690689086914063
77353,0.0431103515625,9.790690155029298,-0.14115646362304687
77413,-0.003592529296875,9.811197509765625,-0.20941452026367188
77479,-0.05194198608398438,9.795180816650392,-0.19040405273437502
77554,-0.06930587768554688,9.775421905517579,-0.21764739990234377
77612,-0.12184661865234375,9.761351165771485,-0.229921875
77679,-0.08652008056640625,9.818382568359375,-0.25896148681640624
77757,-0.042361907958984375,9.837093658447266,-0.19414627075195315
77812,-0.04266128540039063,9.856104125976563,-0.28291168212890627
77879,-0.07858657836914062,9.826465759277344,-0.24339385986328127
77952,-0.03981719970703125,9.77886474609375,-0.2171983337402344
78013,-0.09116043090820312,9.814041595458985,-0.23920257568359377
78079,-0.05748046875,9.829010467529297,-0.27033782958984376
78152,-0.053887939453125006,9.794731750488282,-0.21615051269531252
78213,-0.11645782470703125,9.797426147460937,-0.27842102050781253
78279,-0.17513580322265626,9.834249572753906,-0.22722747802734375
78351,-0.14654525756835937,9.815837860107422,-0.2832110595703125
78414,-0.12199630737304688,9.930349731445313,-0.17318984985351563
78479,-0.05748046875,9.749076690673828,-0.1634600830078125
78554,-0.12005035400390626,9.808952178955078,-0.2625540161132813
78612,-0.15193405151367187,9.778715057373047,-0.3447331237792969
78679,-0.178428955078125,9.770332489013672,-0.31644195556640625
78751,-0.195194091796875,9.841734008789063,-0.258662109375
78813,-0.06631210327148437,9.662556610107423,-0.10074050903320313
78879,-0.197589111328125,9.772428131103515,-0.11211685180664063
78951,-0.04535568237304688,9.852212219238282,-0.12364288330078126
79012,-0.2800675964355469,9.858948211669922,-0.17753082275390625
79079,-0.08562194824218751,9.751172332763673,-0.3399430847167969
79153,-0.051492919921875005,9.548194427490236,-0.18052459716796876
79214,-0.039218444824218754,9.802066497802734,-0.2621049499511719
79279,-0.14115646362304687,9.453441467285156,-0.3920347595214844
79349,-0.30641281127929687,9.902208251953125,-0.3770658874511719
79414,-0.16435821533203127,9.683662719726563,-0.3369493103027344
79479,0.009430389404296876,9.896220703125001,-0.15612533569335937
79551,-0.3811074829101563,9.736652526855469,-0.28291168212890627
79612,-0.2701881408691406,9.940079498291016,-0.2743794250488281
79679,-0.014220428466796876,9.842781829833985,-0.2604583740234375
79751,-0.18636245727539064,9.64324676513672,-0.2501298522949219
79814,0.1754351806640625,9.81044906616211,-0.18516494750976564
79879,0.2197430419921875,9.978399810791016,-0.07035369873046875
79952,0.04026626586914063,10.243797912597657,-0.02424957275390625
80012,0.11091934204101563,10.039622497558595,0.07349716186523438
80079,-0.1933978271484375,9.762249298095703,-0.1011895751953125
80153,0.192799072265625,9.70701416015625,-0.17573455810546876
80212,-1.2714559936523437,11.065289611816407,-0.06361770629882812
80279,-0.27153533935546875,10.096953277587891,0.004041595458984375
80354,-0.5752537536621094,9.816885681152344,-0.38095779418945314
80412,-0.000149688720703125,10.357711029052735,0.29952713012695314
80479,-0.844244384765625,10.513087921142578,0.08756790161132813
80553,-0.5071453857421875,10.375224609375001,-0.05358856201171875
80612,-0.9352551269531251,12.84823196411133,-0.06735992431640625
80679,-0.3968247985839844,11.869118041992188,-0.6530918884277344
80749,-0.2149530029296875,12.00279006958008,-1.902843017578125
80813,-0.8843609619140625,9.20540725708008,-1.184486846923828
80879,-1.8510507202148438,10.671308898925782,0.4206253051757813
80949,-0.40505767822265626,10.51024383544922,1.9621197509765627
81015,-0.640518035888672,9.305998077392578,2.2375469970703126
81079,-0.6367758178710938,6.781497802734376,1.7763560485839844
81153,-0.3511697387695313,8.189769287109375,1.8711090087890625
81212,-0.3673361206054688,8.47881820678711,2.1872515869140625
81279,4.31387924194336,10.01836669921875,-0.5204676818847657
81353,-2.7234365844726565,6.999145202636719,5.217550048828126
81412,-0.42706192016601563,6.996750183105469,3.5043626403808594
81479,0.8893006896972657,6.552474060058594,5.933660888671875
81554,0.9168434143066406,5.561983795166016,8.326584777832032
81612,0.9818083190917969,6.159690856933594,6.879543914794922
81679,0.640518035888672,4.071533203125,10.31190628051758
81749,-0.09610015869140626,4.0236328125,8.807983703613282
81813,0.20043319702148438,3.5461257934570316,10.18646713256836
81879,1.2484039306640626,2.95784912109375,9.186546478271485
81953,0.3683839416503906,3.332519989013672,9.054221649169921
82012,-0.288599853515625,3.3314721679687502,8.951385498046875
82079,-0.12005035400390626,2.8973748779296877,9.042994995117187
82152,-0.250279541015625,2.827320556640625,9.555080108642578
82213,-0.22842498779296877,2.9388386535644533,9.358688507080078
82279,-0.24908203125,2.9895831298828126,9.25196044921875
82349,-0.30147308349609375,2.959944763183594,9.322613525390626
82413,-0.1383123779296875,3.00814453125,9.329798583984376
