relative_time,AccX,AccY,AccZ
0,1.229842529296875,9.707313537597656,0.5272036743164062
65,1.4509327697753907,9.163644104003907,0.6077362060546875
136,2.0550764465332034,9.814939727783203,1.0184820556640626
198,2.8386968994140624,10.196196899414064,1.2425660705566406
265,1.554217987060547,10.16251693725586,1.8628761291503908
336,2.874173126220703,7.9082048034667976,2.441722412109375
398,3.350482635498047,8.181087341308594,2.682272186279297
465,4.075574798583984,8.137228546142579,2.974165191650391
537,4.407883758544922,7.802973632812501,3.0130842590332034
598,5.1712962341308595,8.217012634277344,3.4407449340820313
665,5.9920394897460945,8.043673095703125,4.071084136962891
740,2.8740234375,12.123439178466798,2.149080963134766
800,1.3046868896484376,8.538394317626954,0.30910720825195315
865,0.17408798217773438,12.233161010742188,1.1142828369140625
936,0.18456619262695315,8.493936767578125,1.4289285278320314
1001,0.13172607421875002,9.937085723876953,1.5862513732910157
1065,1.2835807800292969,8.583151245117188,1.3910572814941407
1138,1.4826667785644532,9.025032348632813,1.5711328125000001
1200,2.1439915466308594,8.634494476318359,1.2973521423339844
1265,0.377215576171875,8.55830291748047,2.0206480407714844
1337,0.049846343994140625,8.93192596435547,1.184337158203125
1398,0.844244384765625,11.596085815429689,4.024830322265625
1465,3.0588890075683595,10.810968475341797,-0.4129911804199219
1536,-2.1179457092285157,11.370504913330079,3.4160462951660158
1598,2.7749295043945312,12.6696533203125,-0.3757186889648438
1665,2.07169189453125,8.584797821044923,1.6054115295410156
1760,0.9636959838867188,5.672304382324219,2.1143531799316406
1798,0.9854008483886719,4.375101928710937,2.9232710266113284
1865,5.360353088378907,7.151378631591797,2.8638446044921877
1940,5.109474792480469,11.010802917480468,5.404810638427735
2000,4.670437774658203,14.49031723022461,2.15312255859375
2065,0.01107696533203125,12.48044677734375,0.6770420837402344
2136,-1.7332456970214845,9.360933837890625,-0.15043716430664064
2198,1.525477752685547,10.208770751953125,1.751657409667969
2265,-0.7765850830078126,9.164392547607422,1.0470726013183593
2339,1.7982106018066406,8.776998138427734,2.2552102661132816
2398,2.0483404541015626,8.335715789794921,1.8952088928222657
2465,1.68369873046875,8.46444808959961,2.0245399475097656
2536,1.1867321777343751,8.04292465209961,2.6659561157226563
2600,-0.13576766967773438,12.566517791748048,3.6121385192871096
2665,3.8413119506835938,9.69788314819336,1.6137940979003906
2740,-1.13284423828125,14.43478271484375,2.962339782714844
2799,2.911894683837891,13.142819366455079,-0.06062393188476563
2865,2.38304443359375,8.282725982666015,1.5774197387695312
2938,0.8955876159667969,6.554270324707032,2.0342697143554687
3000,1.0051597595214845,4.645739135742188,2.9403355407714846
3065,5.566025390625001,8.932524719238282,2.446512451171875
3136,4.212989044189453,10.534493408203126,4.634213104248047
3201,3.128793640136719,13.962365112304688,2.6301805114746095
3265,0.18905685424804688,11.410022735595703,0.4592449951171875
3336,-0.3147953796386719,9.923164672851563,0.30865814208984377
3403,0.9797126770019532,9.092242584228517,1.3329780578613282
3465,0.013322296142578125,9.207802276611329,0.8511300659179688
3537,1.2466076660156251,9.43248504638672,1.619033203125
3600,1.4518309020996094,8.532855834960937,2.225871276855469
3665,2.422412567138672,8.127947845458985,1.1660751342773439
3736,0.19085311889648438,8.847800903320312,2.0389100646972658
3800,-0.8499325561523438,10.455158386230469,2.4740551757812503
3865,2.974314880371094,9.000782775878907,-0.2656974792480469
3936,0.4578977966308594,13.748908996582031,-0.8475375366210938
3999,2.352957000732422,10.102791137695313,-1.2949571228027343
4065,1.114731903076172,10.241702270507814,0.3595523071289063
4138,1.6736695861816406,8.979526977539063,0.35820510864257815
4199,1.46335693359375,8.724008331298828,1.1599378967285157
4265,2.489173736572266,8.982520751953125,1.176104278564453
4340,1.2219090270996094,9.548493804931642,0.9907896423339845
4399,1.7792001342773438,9.610464935302735,0.7755372619628906
4465,1.2305909729003908,9.712253265380859,0.6050418090820313
4539,1.1042536926269533,10.055788879394532,0.4842430114746094
4599,1.5766712951660158,10.230924682617188,0.3195854187011719
4665,1.7024098205566407,9.409283294677735,0.6551875305175782
4738,1.5160473632812501,9.363628234863281,0.7391629028320312
4802,1.5911911010742188,9.680519256591797,0.5575904846191406
4865,1.3238470458984375,9.756112060546876,0.40236328125000004
4939,1.3647120666503907,9.60058547973633,0.5912704467773438
4999,1.3912069702148437,9.68590805053711,0.5504054260253907
5065,1.244062957763672,9.724527740478516,0.5310955810546876
5139,1.0080038452148439,9.795929260253907,0.5348377990722657
5199,1.0190808105468752,9.6710888671875,0.42646316528320316
5265,1.0701246643066407,9.682016143798828,0.4830455017089844
5340,1.0732681274414062,9.700128479003906,0.4896318054199219
5399,1.0635383605957032,9.72707244873047,0.5053491210937501
5465,0.966390380859375,9.670639801025391,0.4962181091308594
5537,0.9665400695800782,9.707912292480469,0.5683680725097656
5599,1.0470726013183593,9.78694793701172,0.5342390441894531
5665,1.0618917846679687,9.747430114746095,0.49831375122070315
5738,0.9660910034179688,9.761800231933595,0.5203179931640626
5800,0.9882449340820313,9.774224395751954,0.46837600708007815
5865,0.9083111572265625,9.756710815429688,0.5098397827148438
5937,0.9523196411132813,9.761800231933595,0.5385800170898438
5999,1.0006690979003907,9.712552642822265,0.5812413024902344
6065,0.9403445434570313,9.746382293701172,0.5563929748535157
6140,0.9735754394531251,9.74533447265625,0.4843927001953125
6200,0.9410929870605469,9.772877197265625,0.4831951904296875
6265,0.8921447753906251,9.778715057373047,0.5034031677246094
6343,0.9527687072753906,9.742191009521484,0.4794529724121094
6400,0.9000782775878907,9.748927001953126,0.5105882263183594
6465,0.9189390563964844,9.785151672363282,0.47496231079101564
6536,0.9192384338378907,9.74249038696289,0.5376818847656251
6600,0.9297166442871094,9.793234863281251,0.5084925842285156
6665,0.9304650878906251,9.754764862060547,0.5141807556152344
6745,0.9380992126464844,9.777667236328126,0.47436355590820317
6799,0.9228309631347656,9.713750152587892,0.5366340637207031
6865,0.9502239990234376,9.767189025878906,0.5107379150390625
6939,0.9324110412597657,9.770033111572266,0.5203179931640626
6999,0.9223818969726563,9.773176574707032,0.51971923828125
7065,1.011746063232422,9.73186248779297,0.5590873718261719
7137,0.9225315856933595,9.768685913085937,0.5869294738769532
7202,0.8822653198242187,9.749974822998047,0.5731581115722657
7265,0.8870553588867188,9.769883422851564,0.5770500183105469
7336,0.956660614013672,9.747579803466797,0.5601351928710938
7398,0.9439370727539063,9.78560073852539,0.5766009521484375
7465,0.9123527526855469,9.763895874023438,0.5962101745605469
7540,0.9270222473144532,9.767189025878906,0.5748046875
7600,0.918340301513672,9.7716796875,0.5620811462402344
7665,0.9136999511718751,9.746681671142579,0.5505551147460938
7740,0.8891510009765625,9.762249298095703,0.5760021972656251
7799,0.9443861389160156,9.763746185302734,0.5933660888671876
7865,0.8855584716796876,9.752369842529298,0.5843847656250001
7937,0.9497749328613282,9.764644317626953,0.6448590087890625
8000,0.9554631042480469,9.707612915039062,0.6033952331542969
8065,0.9012757873535157,9.735155639648438,0.6252497863769532
8140,0.866847381591797,9.753417663574218,0.5954617309570313
8199,0.937500457763672,9.75147171020508,0.5815406799316406
8265,0.901724853515625,9.746981048583985,0.6026467895507813
8340,0.9107061767578125,9.748777313232422,0.6004014587402344
8399,0.9000782775878907,9.75251953125,0.6237528991699219
8465,0.9318122863769531,9.722731475830079,0.5947132873535157
8540,0.8972341918945312,9.745035095214844,0.6417155456542969
8599,0.9530680847167969,9.734856262207032,0.5951623535156251
8665,0.9186396789550781,9.74009536743164,0.6182144165039063
8740,0.9264234924316407,9.706265716552736,0.6081852722167969
8799,0.9325607299804688,9.74862762451172,0.6637197875976563
8865,0.9545649719238282,9.715097351074219,0.592767333984375
8939,0.8863069152832032,9.776170349121093,0.662222900390625
8999,0.8770262145996094,9.720037078857422,0.619112548828125
9065,0.9220825195312501,9.775571594238281,0.6259982299804688
9139,0.9211843872070313,9.769584045410157,0.5769003295898438
9199,0.8731343078613282,9.74817855834961,0.6132746887207031
9265,0.889749755859375,9.749226379394532,0.5873785400390625
9337,0.8864566040039062,9.770482177734376,0.6219566345214844
9399,0.9093589782714844,9.740843811035157,0.5779481506347657
9465,0.8958869934082032,9.76584182739258,0.6146218872070313
9540,0.8858578491210938,9.761351165771485,0.59635986328125
9599,0.8548722839355469,9.750423889160157,0.5923182678222657
9665,0.9395960998535157,9.787546691894532,0.6230044555664063
9743,0.8708889770507813,9.749825134277344,0.5535488891601563
9799,0.8276289367675782,9.756561126708984,0.5905220031738282
9865,0.8403524780273438,9.735005950927734,0.5441184997558594
9936,0.8304730224609376,9.75296859741211,0.5953120422363282
10001,0.8857081604003907,9.757010192871094,0.5590873718261719
10065,0.8593629455566407,9.764794006347657,0.5557942199707031
10140,0.8647517395019532,9.778265991210938,0.5727090454101563
10200,0.8473878479003907,9.746531982421876,0.569864959716797
10265,0.863404541015625,9.755962371826172,0.5623805236816406
10339,0.8533753967285157,9.744136962890625,0.5849835205078125
10399,0.8297245788574219,9.764794006347657,0.5343887329101563
10465,0.8520281982421876,9.748028869628907,0.5917195129394531
10537,0.9024732971191407,9.70267318725586,0.5783972167968751
10599,0.8698411560058594,9.740544433593751,0.5385800170898438
10665,0.8403524780273438,9.726473693847657,0.5360353088378906
10739,0.8557704162597657,9.771380310058595,0.5568420410156251
10799,0.85023193359375,9.737400970458985,0.5381309509277344
10865,0.8669970703125001,9.752818908691406,0.5477110290527344
10938,0.8867559814453125,9.770332489013672,0.568817138671875
10999,0.8523275756835937,9.739346923828126,0.580792236328125
11065,0.8473878479003907,9.761650543212891,0.5516029357910156
11136,0.8505313110351563,9.734856262207032,0.5673202514648438
11205,0.8312214660644531,9.727671203613282,0.5953120422363282
11265,0.8125103759765625,9.793833618164063,0.5676196289062501
11336,0.8231382751464844,9.781409454345704,0.5486091613769531
11399,0.6659651184082032,9.792187042236328,0.6098318481445313
11465,0.771046600341797,9.739795989990235,0.5322930908203125
11537,0.8081694030761719,9.747430114746095,0.6002517700195312
11599,0.7306306457519531,9.754465484619141,0.6372248840332032
11665,0.7656578063964844,9.789043579101563,0.5508544921875
11737,0.7393125915527344,9.807604980468751,0.63228515625
11799,0.8357121276855469,9.726922760009765,0.6074368286132813
11866,1.0767109680175782,9.75147171020508,0.6710545349121094
11939,0.858614501953125,9.753717041015625,0.7360194396972657
11999,1.0219248962402345,9.706565093994142,0.7213499450683594
12065,1.0856922912597657,9.607920227050782,0.8505313110351563
12139,1.349294128417969,9.407786407470704,0.8637039184570313
12199,1.0624905395507813,8.893455963134766,0.8780740356445313
12265,1.6090040588378907,8.801098022460938,1.1220666503906251
12340,3.934717712402344,9.921518096923828,1.9547850036621095
12399,2.279160461425781,10.893297271728516,3.130440216064453
12465,2.626138916015625,7.986492004394532,2.2240750122070314
12536,2.8524682617187502,8.005352783203126,2.9306057739257816
12602,3.380270690917969,7.454049224853516,3.426823883056641
12665,4.267176361083985,7.558082885742188,4.522096252441407
12739,5.983058166503906,8.76622055053711,4.956941986083985
12799,5.769302673339844,9.776320037841797,4.791835327148438
12865,0.5267546081542969,10.606343994140625,2.2007235717773437
12940,0.08307723999023438,11.155701599121095,-0.5754034423828125
12999,1.481169891357422,9.560917968750001,0.9321116638183594
13065,0.2070195007324219,9.534872131347656,0.8132588195800782
13136,1.7895286560058594,8.293503570556641,1.1885284423828126
13199,1.0725196838378908,8.901688842773439,1.2636721801757813
13265,0.9255253601074219,8.553213500976563,1.6600479125976564
13338,1.447639617919922,9.067843322753907,1.8890716552734377
13401,-0.7062313842773438,8.694519653320313,2.1510269165039064
13465,1.1523037719726563,12.500804443359376,4.366419982910156
13538,2.6003924560546876,9.421707458496094,0.22647903442382813
13599,0.07424560546875,10.795849914550782,0.5227130126953126
13665,4.16014892578125,14.719041595458986,-0.8102650451660157
13738,1.8970051574707032,8.831634521484375,1.7262103271484377
13799,1.1850856018066407,7.517217864990235,2.7846592712402347
13866,-0.092208251953125,5.05828125,2.5179139709472658
13936,2.8925848388671875,6.134393463134766,2.7524761962890625
13999,3.6863841247558597,10.723550262451173,4.805906066894532
14065,10.867550811767579,7.589966583251954,5.6749987792968755
14136,0.6491999816894531,15.067666625976564,1.4085708618164063
14199,-2.152823181152344,7.374863891601563,-0.11226654052734375
14265,1.7756076049804688,10.536589050292969,2.1665945434570313
14344,-0.5215155029296875,9.528734893798829,0.8969348144531251
14400,0.9145980834960938,8.743318176269531,2.205363922119141
14465,1.7916242980957031,8.855285339355468,1.5654446411132814
14539,2.4108865356445315,8.67955078125,1.7392332458496094
14599,1.4138099670410158,7.858358459472656,1.3621673583984375
14665,-0.23231689453125,10.730735321044923,3.816164245605469
14742,4.057462463378906,8.463549957275392,2.7464886474609376
14799,0.7469467163085938,11.244017944335939,-0.8649014282226563
14865,2.0604652404785155,13.426030426025392,2.1400996398925782
14937,2.049088897705078,9.431437225341798,0.8619076538085938
14999,2.2531146240234374,8.107440490722656,2.0769309997558594
15065,0.250279541015625,5.7224501037597655,2.2049148559570315
15137,2.590063934326172,4.761298828125001,2.8969258117675785
15199,6.368057556152344,10.953771514892578,3.363804931640625
15265,8.115673370361328,8.571475524902343,7.178023223876954
15337,2.343227233886719,13.089679870605469,3.2265403747558596
15400,-3.030897216796875,7.575147399902344,-0.11451187133789063
15465,0.5158273315429688,12.782518615722656,0.626297607421875
15538,0.5060975646972656,8.609496459960939,1.1728111267089845
15599,0.5203179931640626,9.204209747314454,1.5739768981933595
15665,2.195783843994141,8.112679595947267,1.5877482604980468
15736,2.1007315063476564,8.626560974121094,2.002086639404297
15799,1.4733860778808594,7.922425231933594,1.6387921142578126
15865,1.4221925354003906,9.466913452148438,3.613934783935547
15936,2.652184753417969,10.068213043212891,1.9630178833007814
16004,1.161285095214844,10.07390121459961,-1.2263996887207032
16065,1.1282038879394531,12.426708526611328,2.1748274230957034
16138,2.42136474609375,11.567644958496095,0.12663665771484375
16199,2.121837615966797,8.700806579589845,1.8778450012207033
16265,0.39787261962890624,6.542295227050782,2.501298522949219
16336,1.5361056518554688,4.595743103027344,3.067720642089844
16403,6.376889190673828,9.271869049072267,2.825973358154297
16465,4.841082916259766,11.191177825927735,5.081033935546875
16537,0.8782237243652344,14.02089340209961,3.0289512634277345
16599,0.11106903076171876,9.635762329101563,0.6780899047851563
16665,0.45655059814453125,10.118658142089844,-0.06271957397460938
16736,1.0835966491699218,9.04883285522461,1.5009288024902345
16799,-0.10672805786132813,9.04015090942383,0.4872367858886719
16865,1.5061679077148438,8.608748016357422,1.4549743652343752
16936,1.4911990356445313,8.41460174560547,2.2683828735351566
16999,2.3472688293457034,8.14351547241211,1.8422190856933596
17066,0.5667214965820313,9.090745697021484,3.466491394042969
17137,2.594554595947266,8.451125793457031,3.0294003295898437
17199,3.267106018066406,12.431199188232423,-1.1216175842285157
17265,1.5163467407226563,14.364728393554689,1.272653503417969
17338,1.9691551208496094,8.77624969482422,0.12229568481445313
17400,1.593586120605469,7.874973907470704,1.8273999023437502
17465,0.8530760192871094,5.8793238830566406,2.023492126464844
17539,2.183209991455078,4.991520080566406,3.0900242614746096
17600,6.735543365478516,10.256072387695314,3.313060455322266
17665,7.930209045410157,9.953850860595704,5.829028472900391
17739,0.5818400573730469,13.347743225097657,2.5399182128906252
17799,-1.1265573120117187,7.673941955566407,-0.6460565185546875
17865,1.0006690979003907,13.858331451416017,0.8433462524414063
17938,0.4429289245605469,7.475155334472657,0.8449928283691407
17999,0.7074288940429688,8.935069427490236,1.8059944152832033
18065,2.0410057067871095,8.242310028076172,1.7759069824218752
18139,2.0261865234375,8.29485076904297,2.1040246582031252
18199,1.5787669372558595,7.501500549316407,1.29091552734375
18265,0.7825726318359375,9.857900390625,3.417243804931641
18338,3.389850769042969,8.964258728027344,3.304827575683594
18399,0.4424798583984375,12.269984436035157,-1.4030323791503907
18465,2.6297314453125002,13.45132781982422,1.6658857727050782
18539,1.5462844848632813,8.947942657470703,0.427510986328125
18599,1.7000148010253908,7.379204864501953,2.621199188232422
18665,0.3543132019042969,5.671256561279297,2.142644348144531
18738,2.9692254638671876,5.641767883300782,3.5251693725585938
18799,7.435038757324219,10.340796203613282,3.390898590087891
18866,8.995543670654298,8.896898803710938,7.831115112304688
18938,1.700164489746094,11.62781982421875,1.9023939514160157
18999,-2.977907409667969,8.253087615966797,0.5409750366210938
19065,0.8301736450195313,10.432854766845704,1.5070660400390625
19138,-0.02604583740234375,8.824898529052735,0.7631130981445313
19199,1.09931396484375,8.706644439697266,1.578168182373047
19265,1.7576449584960938,8.561296691894531,2.455044708251953
19337,2.2574555969238284,7.7918966674804695,1.608105926513672
19399,0.536484375,7.424410858154297,3.1668145751953127
19465,2.0453466796875,11.7116455078125,3.245101776123047
19540,1.030906219482422,11.326047363281251,-0.5357359313964845
19599,0.9012757873535157,13.418545989990236,1.1337423706054688
19665,4.400249633789063,12.259356536865235,-0.6415658569335938
19738,1.9360739135742189,7.571405181884766,1.7058526611328126
19799,1.1139834594726563,6.2156744384765625,2.4209156799316407
19865,0.7250921630859375,4.115391998291016,2.57464599609375
19939,6.704408111572266,10.025402069091797,3.959116973876953
19999,6.221811676025391,10.199040985107422,6.08619369506836
20065,2.5918601989746093,15.567028198242188,3.4118550109863284
20137,-1.5850538635253908,8.834628295898439,-0.5652246093750001
20199,-0.15358062744140627,11.449690246582032,0.06601272583007813
20265,1.3127700805664062,8.695118408203125,1.3467494201660157
20338,0.5170248413085938,8.944050750732423,1.6215779113769533
20399,2.2514680480957034,8.628057861328125,1.8193167114257813
20465,2.1788690185546877,8.314609680175781,2.025887145996094
20540,1.7748591613769533,7.170987854003907,1.846410369873047
20599,0.888402557373047,10.403066711425781,3.087479553222656
20665,2.441722412109375,9.531578979492188,2.971021728515625
20739,0.5563929748535157,10.599458312988283,-0.85023193359375
20799,1.7838404846191407,14.537918243408203,2.765948181152344
20866,3.19974609375,11.296558685302735,-1.0663824462890625
20942,1.6817527770996095,7.357200622558594,2.734962615966797
20999,0.7423063659667969,5.746999053955078,1.9787351989746094
21065,1.7964143371582033,4.204307098388672,3.056943054199219
21140,6.480623474121094,11.066636810302734,4.109254760742187
21199,8.688532104492188,8.805438995361328,6.661597137451173
21265,0.5822891235351563,13.71193588256836,1.88967041015625
21338,-3.247047729492188,7.570507049560547,0.6547384643554688
21399,1.249002685546875,11.2039013671875,1.447489929199219
21466,0.46059219360351566,8.729846191406251,0.97716796875
21538,1.029708709716797,8.725205841064454,1.7765057373046875
21600,1.6209791564941407,8.681646423339844,1.7827926635742188
21665,2.199526062011719,8.211474151611329,2.106569366455078
21734,1.1431727600097656,7.434739379882813,1.7908758544921877
21799,1.3536351013183594,11.846664733886719,4.513563995361328
21865,4.254153442382813,9.400751037597656,2.4542962646484376
21938,-0.07619155883789062,12.908855895996094,-1.3678555297851562
22000,4.067940673828125,13.959820404052735,0.8057743835449219
22065,1.793719940185547,7.538623352050782,1.4916481018066408
22139,1.728006591796875,7.619754638671876,2.5001010131835937
22199,0.34787658691406254,5.31499740600586,2.1751268005371096
22265,3.0934671020507816,5.734275512695313,3.3886532592773437
22340,4.647984466552734,11.488459625244142,3.3352143859863284
22399,9.906549224853515,11.198961639404297,6.6032185363769536
22465,0.396375732421875,10.532397766113283,1.2419673156738282
22538,-3.3606614685058593,10.356064453125,0.18396743774414062
22600,2.013912048339844,9.085356903076173,1.8877244567871094
22665,0.6035449218750001,9.399254150390625,1.0879376220703125
22738,1.5569123840332033,8.156987457275392,1.6757652282714846
22799,1.689536590576172,8.883875885009767,2.252216491699219
22866,2.1115090942382815,8.546627197265625,1.8616786193847656
22945,0.8360115051269532,7.406597900390626,2.4650738525390627
23000,0.7295828247070313,12.887899475097656,3.8417610168457035
23065,4.336931304931641,9.140891418457032,2.6369165039062503
23137,0.42960662841796876,11.352991333007813,-1.3016931152343751
23199,4.335733795166016,15.461048583984375,0.05313949584960938
23265,1.6504678344726564,6.85215087890625,1.510059814453125
23338,1.0704240417480468,6.902745666503907,2.808908843994141
23401,0.47601013183593754,4.682861938476563,2.784958648681641
23465,4.065096588134766,5.7877143859863285,3.5750157165527345
23540,5.612279205322266,12.42012222290039,1.832040252685547
23599,8.011190643310547,14.147230682373047,6.035598907470703
23665,0.45879592895507815,7.77707748413086,-0.06316864013671876
23738,-1.2299922180175782,13.02935531616211,1.354383544921875
23799,1.537452850341797,7.381749572753907,1.5133529663085938
23866,-1.0062075805664064,10.490185546875,1.4256353759765625
23937,2.2676344299316407,8.5214794921875,1.7095948791503908
23999,2.361339569091797,9.157806243896484,2.8455825805664063
24066,3.30273193359375,8.144563293457031,1.1886781311035157
24136,-0.511336669921875,7.749983825683594,3.1566357421875
24199,0.4481680297851563,10.607840881347657,3.169508972167969
24266,5.395230560302735,8.001161499023437,2.9669801330566408
24338,-0.7168592834472657,14.647340698242187,-0.5551954650878906
24399,5.8634568786621095,13.848751373291016,-0.3095562744140625
24465,2.142644348144531,8.141868896484375,1.0972183227539063
24538,1.9977456665039064,7.114704895019532,2.5429119873046875
24600,1.1543994140625,5.005141754150391,3.4829571533203127
24666,3.0958621215820314,5.5077964782714846,2.1580622863769534
24737,6.481970672607422,11.463162231445313,3.3382081604003906
24799,9.187145233154297,8.36101318359375,7.680079193115235
24866,0.7447013854980469,12.144245910644532,0.7702981567382813
24939,-0.8918453979492188,8.01942352294922,-0.4421804809570313
24999,1.6226257324218751,12.984149322509767,1.6407380676269532
25066,-0.26105712890625,8.939709777832032,0.9571096801757814
25138,0.5393284606933594,8.954379272460939,2.711162109375
25199,3.4789155578613284,8.25368637084961,2.6996360778808595
25266,2.655028839111328,7.973768463134766,1.4705419921875
25340,0.3986210632324219,8.302335205078126,2.874771881103516
25400,2.702330474853516,10.785970458984375,1.9835252380371096
25465,4.494703216552734,8.983568572998047,4.2803489685058596
25538,-0.5164260864257812,12.346175994873047,-1.7079483032226563
25601,3.9426512145996098,13.850098571777345,1.1123368835449219
25666,1.1277548217773439,8.607550506591798,0.23590942382812502
25740,1.1737092590332032,6.6243246459960945,2.8265721130371095
25799,0.48559020996093755,4.710704040527344,2.6670039367675784
25866,4.108955383300781,5.31260238647461,3.2792308044433596
25939,4.767735443115234,12.597353668212891,3.6651283264160157
25999,7.956404571533204,9.868528289794922,4.394411773681641
26066,0.18052459716796876,12.934602355957033,-0.4493655395507813
26137,-1.0621911621093751,9.608518981933594,-0.05553451538085938
26199,1.6856446838378907,9.749076690673828,2.265538787841797
26266,0.12049942016601563,8.227041778564454,1.525477752685547
26339,2.0219952392578127,8.698860626220704,1.3835728454589844
26399,1.9740948486328127,8.420589294433594,2.1198916625976563
26465,2.0838166809082033,7.538473663330079,1.6365467834472658
26538,1.821412353515625,9.212442626953125,3.723955993652344
26601,2.5372238159179688,8.982520751953125,3.7449124145507815
26666,2.405497741699219,11.926448822021484,-1.407073974609375
26735,2.764750671386719,16.04124206542969,1.8935623168945312
26799,2.468816070556641,9.04598876953125,-0.0568817138671875
26865,1.999691619873047,7.74115219116211,2.6279351806640627
26939,0.36209701538085937,4.623285827636719,1.9955003356933594
26999,2.5107289123535157,4.100423126220703,3.3151560974121095
27066,7.622449035644531,12.633877716064454,3.0814920043945313
27137,11.220516815185547,6.679410095214844,8.098908233642579
27199,-1.2986993408203125,15.098053436279297,1.1448193359375
27266,-2.5704547119140626,7.372917938232423,0.7506889343261719
27340,1.4786251831054689,10.235265655517578,2.273921356201172
27400,0.3968247985839844,8.333620147705078,0.9794132995605469
27466,1.332528991699219,8.376431121826172,1.684896240234375
27538,2.178120574951172,8.733887786865235,2.2911355590820315
27599,2.0378622436523437,8.301886138916016,1.8544935607910158
27665,0.749491424560547,7.392826538085938,1.9407142639160158
27738,1.1790980529785158,12.421319732666015,4.448599090576172
27799,4.1921823120117185,8.782386932373047,2.0812719726562503
27866,-0.27422973632812503,12.322225799560547,-0.9148974609375
27938,4.665048980712891,15.088473358154298,0.08382568359375
28001,1.02267333984375,7.276967468261719,1.159039764404297
28065,1.5152989196777344,6.629713439941407,3.0024563598632814
28137,0.3974235534667969,4.7364505004882815,2.5664131164550783
28199,4.180207214355469,6.216422882080079,3.3154554748535157
28266,4.6536726379394535,11.815828857421875,3.6247123718261722
28338,6.305038604736328,13.945749664306641,4.012855224609376
28399,1.396146697998047,13.61942825317383,-0.31225067138671875
28466,-3.007695465087891,8.209827575683594,0.5671705627441407
28539,1.7019607543945314,9.665400695800782,1.371148681640625
28599,-0.2782713317871094,8.83807113647461,1.3859678649902345
28665,1.8922151184082032,8.54587875366211,1.5750247192382814
28739,2.0651055908203126,8.500223693847657,2.139351196289063
28799,2.123035125732422,8.047415313720704,1.7392332458496094
28866,1.5239808654785156,7.526648254394532,2.322869567871094
28938,0.67779052734375,11.670032043457033,2.740950164794922
29000,3.926484832763672,9.762398986816407,0.699345703125
29066,1.4817686462402344,12.953014068603517,1.803300018310547
29138,3.0171258544921877,13.205538940429689,-0.15522720336914064
29199,1.4575190734863281,7.921377410888672,1.3129197692871095
29266,1.205742645263672,6.331533508300781,2.482138366699219
29339,1.7444723510742188,4.008963317871094,2.9485684204101563
29399,7.378606109619141,9.778116302490234,1.8110838317871094
29465,5.758974151611328,10.506202239990236,4.982239379882813
29539,2.2805076599121095,13.414205017089845,3.946692810058594
29600,-1.1361373901367189,9.202413482666016,-0.16076568603515626
29665,1.0400372314453126,11.151061248779298,0.8190966796875
29737,1.0955717468261719,8.515941009521486,1.603615264892578
29801,1.0283615112304687,8.938961334228516,1.578168182373047
29865,2.0181033325195314,8.806187438964844,1.6977694702148438
29937,1.5284715270996094,8.961264953613282,2.46926513671875
29999,1.9803817749023438,8.373137969970703,1.277742919921875
30066,0.7042854309082032,8.360564117431641,2.1775218200683595
30136,2.009122009277344,10.952574005126953,3.172053680419922
30199,2.4216641235351566,9.076076202392578,2.9247679138183593
30265,2.4712110900878907,9.298513641357422,0.08966354370117188
30339,0.3170407104492188,10.879675598144532,-0.9547146606445313
30399,3.4450859069824222,12.97756301879883,-1.0121951293945313
30466,3.6705171203613283,9.45793212890625,0.5742059326171876
30538,2.835703125,9.25001449584961,1.816472625732422
30599,0.9153465270996094,7.352560272216797,2.5247996520996097
30666,5.068609771728516,8.49663116455078,2.0613633728027345
30737,2.963836669921875,8.93866195678711,3.023861846923828
30801,3.560944976806641,7.426805877685547,2.362686767578125
30866,3.2754885864257814,7.734416198730469,2.1176463317871095
30938,-0.3254232788085938,17.765506439208984,1.9236497497558596
31001,-0.08637039184570312,6.283184051513672,0.19848724365234377
31066,0.8256829833984375,11.776610412597657,2.664758605957031
31140,1.2114308166503907,7.693850555419922,2.2246737670898438
31200,1.467099151611328,9.585317230224609,1.7857864379882813
31266,0.9436376953125001,9.3070458984375,2.5132736206054687
31340,0.8768765258789063,9.590406646728516,1.7271084594726562
31399,0.27797195434570315,9.799372100830078,1.8821859741210938
31466,0.036074981689453126,9.48517547607422,1.5786172485351564
31536,-0.03742218017578125,9.691745910644531,1.7706678771972657
31599,-0.23246658325195313,9.739646301269532,1.8788928222656252
31666,-0.7854167175292969,9.504934387207031,2.118245086669922
31732,-1.119521942138672,9.496102752685548,1.960173797607422
31799,-0.49517028808593755,8.985514526367188,2.429298248291016
31866,0.3948788452148438,8.587641906738282,2.422113189697266
31937,3.6805462646484375,10.456505584716798,3.765868835449219
32000,6.353388061523438,10.934910736083985,3.647015991210938
32066,4.238286437988282,11.525881805419923,0.03397933959960937
32138,-0.0508941650390625,9.008865966796876,1.4928456115722657
32199,0.7752378845214845,7.02504135131836,1.3671070861816408
32266,3.0767019653320316,9.005123748779297,2.1240829467773437
32338,1.2617262268066407,6.718778228759766,3.4346076965332033
32400,2.132914581298828,7.199578399658203,3.1846275329589844
32466,4.474495239257813,9.090446319580078,3.507206726074219
32538,7.085515594482422,7.473209381103516,6.9745962524414065
32599,1.8287471008300782,13.897400207519532,2.8036697387695315
32666,0.7057823181152344,7.0979397583007815,0.22123992919921875
32738,1.1091934204101563,13.620775451660156,1.4702426147460939
32799,0.7990383911132813,7.911497955322266,1.1383827209472657
32866,0.37018020629882814,9.431886291503906,1.0970686340332032
32938,1.5365547180175783,8.295000457763672,1.4766792297363283
32999,1.9820283508300782,8.457712097167969,2.126178588867188
33066,2.26329345703125,8.555608520507812,1.3928535461425782
33138,0.29533584594726564,8.29679672241211,3.143163757324219
33200,1.2112811279296876,11.370804290771485,3.397185516357422
33266,5.409001922607422,10.12374755859375,0.7279362487792969
33338,0.5204676818847657,14.88938735961914,2.275567932128906
33400,4.485123138427735,11.861334228515625,-0.2844085693359375
33466,1.5021263122558595,7.829019470214845,1.41545654296875
33537,1.2451107788085938,6.472540283203125,2.3343955993652346
33599,0.5966592407226563,4.2966650390625,3.023861846923828
33666,5.255570983886719,7.5717045593261725,2.691552886962891
33740,6.16717529296875,9.983339538574219,5.468877410888672
33799,4.3313928222656255,15.53259979248047,4.441264343261719
33866,-0.025746459960937502,9.776619415283204,0.2628533935546875
33937,1.3729449462890626,12.248429260253907,0.41508682250976564
33999,1.1060499572753906,8.000113677978517,0.978215789794922
34066,0.12678634643554687,9.550140380859375,1.194965057373047
34140,1.8910176086425783,8.316855010986329,1.5932867431640625
34199,2.4325914001464843,8.303383026123047,2.808908843994141
34266,2.4501049804687502,8.103698272705078,1.535357208251953
34337,0.5054988098144532,8.714577941894532,3.0588890075683595
34399,2.5137226867675784,11.756552124023438,4.298910369873047
34466,4.205205230712891,9.547146606445313,0.9683363342285157
34537,0.14998809814453126,13.124856719970703,1.646426239013672
34600,3.361260223388672,14.916181640625,-0.35042129516601567
34666,2.3040087890625003,7.853867797851563,1.2973521423339844
34738,1.0053094482421876,5.689817962646485,2.542013854980469
34802,0.63947021484375,3.7519477844238285,2.724634094238281
34866,6.1487635803222656,7.776179351806641,2.4180715942382816
34937,6.356232147216797,10.084080047607422,5.535788269042969
35000,5.451812896728516,14.588662719726564,4.124523010253906
35066,-0.5682183837890625,10.072554016113282,-0.0029937744140625003
35137,0.0089813232421875,12.017010498046876,0.21076171875000002
35199,2.109563140869141,8.384813690185547,1.4263838195800782
35266,0.7530839538574219,8.719966735839844,1.0412347412109375
35338,1.5627502441406251,8.212372283935547,1.1520043945312501
35399,2.3803500366210937,8.483907623291016,2.1513262939453126
35466,1.8268011474609376,7.764952697753906,1.5238311767578125
35538,1.1255094909667969,9.639055480957031,4.2837918090820315
35600,2.4998016357421875,9.28504165649414,3.9556741333007817
35666,1.9464024353027345,11.329490203857423,-1.4367123413085938
35738,4.912783813476563,16.196768646240237,1.7417779541015626
35800,1.688339080810547,9.692793731689454,0.5159770202636719
35866,1.5991246032714845,7.328909454345704,2.253563690185547
35940,0.5544470214843751,4.785847778320313,1.921703796386719
35999,2.211950225830078,4.093986511230469,3.070714416503906
36066,6.354585571289062,12.554093627929689,4.1992176818847655
36138,11.445648651123047,9.04688690185547,6.990912322998048
36199,0.5460644531250001,14.005625152587891,2.122735748291016
36266,-3.320544891357422,6.831344146728516,-0.6794371032714844
36338,3.460503845214844,10.686277770996094,1.9580781555175781
36399,0.7593708801269532,8.443341979980469,0.3465293884277344
36466,0.8020321655273438,8.756939849853516,1.6578025817871094
36538,1.627266082763672,8.471483459472656,2.0809725952148437
36599,2.6964926147460937,8.442294158935548,2.036365356445313
36666,1.6329542541503907,7.8850030517578125,1.8723065185546877
36732,0.24279510498046877,10.992989959716798,3.878584442138672
36799,4.108206939697266,9.418713684082032,3.046315155029297
36866,1.3451028442382813,10.560688934326173,-1.6485218811035156
36939,4.3384281921386725,15.345937957763672,1.3274395751953125
37000,1.9372714233398438,9.870923309326173,-0.16899856567382812
37066,2.0960911560058593,7.899822235107422,2.372416534423828
37137,0.8171507263183594,5.401667175292969,2.3005659484863283
37203,1.9871177673339844,4.52943099975586,3.0124855041503906
37266,6.526128845214844,11.455977172851563,3.557202758789063
37338,9.989027709960938,8.567583618164063,6.122118988037109
37399,0.1323248291015625,13.854439544677735,2.2998175048828124
37466,-0.5553451538085937,10.982811126708985,-0.0844244384765625
37538,2.2836511230468752,10.994935913085937,2.54830078125
37599,0.7625143432617187,8.530760192871094,0.6658154296875001
37666,1.7333953857421875,7.8499758911132815,0.6959028625488282
37738,1.7461189270019533,8.67041976928711,2.279010772705078
37799,1.1874806213378908,8.456664276123048,1.8396743774414064
37866,1.5944842529296877,8.41849365234375,1.189276885986328
37940,0.6915618896484376,10.528655548095704,4.182602233886719
38000,5.404810638427735,7.870183868408204,4.503834228515625
38066,0.7619155883789063,10.823242950439454,-1.627266082763672
38140,5.320236511230469,17.218094787597657,0.852626953125
38199,1.9369720458984376,8.666827239990235,1.3500425720214844
38266,1.6425343322753907,7.842641143798828,3.7091368103027347
38339,-0.6367758178710938,4.246219940185547,2.8059150695800783
38399,2.1499790954589844,4.290677490234375,3.2504905700683597
38466,7.044650573730469,10.38719970703125,3.5983671569824223
38539,9.608369293212892,8.066575469970704,4.3842329406738285
38601,0.996328125,13.598471832275392,5.288502502441407
38666,-2.1917422485351565,8.790320434570313,-0.059725799560546876
38738,3.2022908020019534,11.089688873291017,1.7875827026367188
38801,0.19968475341796876,8.945248260498047,0.7963439941406251
38866,1.4181509399414063,8.139922943115234,1.118324432373047
38936,1.780547332763672,8.64886459350586,1.5109579467773437
38999,2.339335327148438,8.185128936767578,2.2465283203125
39066,1.9684066772460938,7.945327606201173,1.1115884399414062
39136,1.1946656799316406,9.858648834228516,5.366640014648437
39201,4.022884368896484,9.132059783935548,2.4474105834960938
39266,0.192799072265625,11.779005432128907,-1.396146697998047
39337,2.1751268005371096,14.430741119384766,1.5679893493652344
39399,2.1013302612304687,10.261910247802735,0.36434234619140626
39466,1.9887643432617188,8.067922668457031,2.1680914306640626
39537,-0.19444564819335938,5.028493194580078,1.8711090087890625
39600,2.062261505126953,4.632865905761719,3.4925372314453127
39666,6.094725952148438,11.137140197753906,3.7976028442382814
39739,11.038046264648438,8.736582183837891,8.380622406005859
39799,-0.9788145446777344,16.28748001098633,0.250279541015625
39866,-3.2853680419921876,6.31851058959961,-0.049846343994140625
39941,1.1621832275390627,9.957293701171876,2.6406587219238284
40000,0.456251220703125,8.590785369873048,0.9363029479980469
40066,1.969604187011719,8.60051513671875,2.2312600708007815
40139,1.727856903076172,8.416697387695313,1.941013641357422
40199,1.8902691650390626,8.005352783203126,1.7116905212402345
40266,0.9972262573242188,7.976313171386719,2.022294616699219
40337,0.8765771484375,11.760893096923828,3.673510894775391
40400,5.109474792480469,11.085796966552735,1.60226806640625
40466,0.55803955078125,14.733411712646484,-0.6277944946289062
40538,2.610421600341797,12.065060577392579,0.8343649291992188
40599,2.0767813110351563,8.015531616210938,0.975820770263672
40666,0.8916957092285157,6.29935043334961,2.870281219482422
40738,0.8647517395019532,4.175566864013672,3.046315155029297
40800,6.212231597900391,7.714507598876954,2.557731170654297
40866,4.752467193603516,11.682456207275392,4.86907470703125
40938,5.015769653320313,16.27804962158203,1.6119978332519531
40999,-0.7758366394042969,8.439150695800782,-0.9247769165039063
41066,1.2554393005371094,13.045521697998048,0.3345542907714844
41137,1.036893768310547,7.79908172607422,1.0021659851074218
41199,0.8699908447265625,9.216783599853516,1.5976277160644532
41266,2.5870701599121095,8.278684387207031,1.4126124572753906
41339,2.2171893310546875,8.268056488037109,2.4816893005371097
41399,2.821482696533203,7.8321629333496094,1.9010467529296875
41466,0.398770751953125,7.991132354736329,3.212918701171875
41540,2.6444009399414066,10.223140869140625,2.7502308654785157
41600,4.494852905273437,9.797875213623048,-0.2890489196777344
41666,-0.26000930786132814,14.353501739501954,0.2525248718261719
41733,3.813020782470703,12.857362976074219,-0.9819580078125001
41799,2.6994863891601564,8.109685821533203,1.5913407897949219
41866,0.650247802734375,6.361471252441406,2.5963508605957033
41939,0.6930587768554688,4.247417449951172,2.5848248291015627
41999,5.7559803771972655,7.37905517578125,2.783910827636719
42066,4.887486419677734,10.685379638671876,5.287155303955078
42139,6.776857452392578,13.944103088378906,4.00252670288086
42199,0.8891510009765625,11.827654266357422,1.22385498046875
42266,-1.954186248779297,11.138188018798829,-0.5004093933105469
42337,1.629810791015625,7.773784332275391,1.6923806762695313
42399,0.8408015441894532,9.592801666259765,0.9373507690429688
42466,1.8607804870605469,8.113428039550781,1.5229330444335938
42540,1.563648376464844,8.659791870117187,2.258353729248047
42599,2.5438101196289065,7.350314941406251,1.2012519836425781
42666,0.67300048828125,7.85895721435547,3.982318725585938
42738,3.4623001098632815,10.041418762207032,2.787653045654297
42799,2.2457798767089843,10.99598373413086,-0.4888833618164063
42866,2.1341120910644533,14.244827728271485,1.131646728515625
42941,3.357218627929688,10.294991455078126,0.09834548950195313
43000,1.4352154541015625,7.693551177978516,1.9034417724609376
43066,0.6444099426269532,6.01389404296875,2.2839505004882814
43138,1.6531622314453125,4.316124572753907,2.770738220214844
43199,6.946903839111329,10.660980377197266,3.770509185791016
43266,6.302044830322266,9.749226379394532,5.855223999023438
43337,2.981499938964844,15.094610595703125,2.628384246826172
43399,-2.079924774169922,8.057444458007813,-1.3775852966308595
43466,1.8564395141601564,13.75983627319336,0.5090913391113282
43536,0.8363108825683594,7.763755187988282,0.9063652038574219
43601,1.050066375732422,8.851243743896484,1.4435980224609375
43666,1.6830999755859375,8.34035614013672,1.3705499267578125
43736,2.025737457275391,8.526119842529297,2.1372555541992186
43799,1.788929901123047,7.779322814941406,1.4795233154296876
43866,0.8062234497070313,10.304421844482423,4.0236328125
43942,4.237388305664063,7.7249858093261725,2.8735743713378907
43999,1.0229727172851564,13.380824432373048,-2.1450393676757815
44066,3.789669342041016,14.431339874267579,1.605710906982422
44137,1.2765454101562501,7.796986083984375,0.8162525939941406
44199,1.8155744934082032,7.212002563476563,2.474803619384766
44266,0.5905220031738282,4.79527816772461,2.2144949340820315
44337,3.088227996826172,4.015250244140625,3.206781463623047
44400,6.698570251464844,12.06985061645508,4.320016479492188
44466,10.444829864501953,8.334518280029297,5.111121368408203
44536,0.8828640747070313,14.124927062988283,-0.6873706054687501
44599,-2.930007019042969,8.602161712646485,1.1648776245117187
44666,1.845063171386719,9.761800231933595,2.1612057495117187
44736,0.44876678466796877,9.724078674316408,1.0470726013183593
44799,2.0468435668945313,7.978259124755859,1.5323634338378906
44866,2.017654266357422,8.075407104492188,2.0389100646972658
44936,2.451003112792969,8.16177749633789,1.7543518066406252
44999,0.8815168762207032,7.235503692626954,2.288740539550781
45066,0.9759704589843751,13.122461700439453,4.29471908569336
45137,4.462071075439454,11.786639556884767,-0.18097366333007814
45200,-0.4872367858886719,11.890523529052736,-0.3814068603515625
45266,4.328698425292969,14.209501190185547,-0.259859619140625
45339,1.7883311462402345,7.150330810546875,1.3406121826171875
45399,0.5882766723632813,6.413562927246094,2.8262727355957034
45466,0.37077896118164066,4.850363616943359,2.910846862792969
45541,6.8990034484863285,8.945547637939454,2.617456970214844
45599,4.295617218017578,10.624905395507813,3.8598733520507813
45666,8.003107452392578,12.774585113525392,5.045108642578125
45737,-0.09714797973632813,11.397448883056642,0.9403445434570313
45799,-0.022902374267578126,11.567046203613282,0.14938934326171877
45866,0.28830047607421877,8.609047393798829,1.507515106201172
45937,0.7394622802734375,8.309071197509766,1.512454833984375
45999,2.34472412109375,8.741372222900392,1.5741265869140626
46065,2.016307067871094,8.174351348876954,2.0841160583496094
46136,1.8256036376953126,7.500602416992188,1.5633489990234375
46202,1.9965481567382815,8.724756774902344,4.741988983154297
46266,2.749332733154297,9.168883209228516,3.011587371826172
46338,1.739832000732422,11.10375961303711,-0.8077203369140625
46399,1.033151550292969,15.348332977294923,2.6469456481933595
46466,2.9491671752929687,9.737400970458985,0.10568023681640626
46539,1.773212585449219,7.315287780761719,2.9268635559082035
46599,0.15522720336914064,5.42037826538086,1.8732046508789064
46666,2.26808349609375,4.658612365722656,2.8895910644531253
46733,7.105274505615235,11.205098876953125,5.22832763671875
46799,8.555159454345704,8.807983703613282,6.707401885986329
46866,-0.33126113891601566,13.938714294433595,1.9007473754882813
46938,-2.387684783935547,6.726861419677735,-0.6427633666992187
46999,2.194885711669922,12.184661865234375,2.1368064880371094
47066,0.6251000976562501,8.396339721679688,1.035845947265625
47138,1.1368858337402343,8.758287048339843,2.3068528747558594
47200,2.1270767211914063,8.721912689208985,1.6211288452148438
47266,1.9413130187988281,8.052654418945313,2.113455047607422
47337,0.7705975341796876,7.312593383789062,2.0038829040527344
47399,1.29570556640625,11.007210388183594,3.8040394592285156
47466,4.0459364318847655,7.947273559570313,2.0085232543945315
47538,1.1846365356445314,12.054432678222657,-1.9202069091796876
47599,4.258195037841797,15.887661437988282,1.5296690368652344
47666,1.7390835571289063,7.951764221191406,0.4206253051757813
47736,1.112486572265625,7.054829406738282,2.8021728515625
47803,1.0171348571777343,5.674549713134766,2.5737478637695315
47866,2.7928921508789064,4.632566528320313,3.095113677978516
47940,6.7828450012207036,13.067825317382812,2.5867707824707034
47999,10.225086822509766,7.100783843994141,7.522606658935548
48066,-0.9012757873535157,15.677348785400392,1.4784754943847658
48138,-2.300266571044922,6.191275177001954,0.04146377563476563
48199,1.2900173950195313,12.112811279296876,2.5225543212890624
48266,-0.38574783325195316,8.969348144531251,1.2328363037109376
48337,1.6245716857910157,9.056916046142579,2.6765840148925784
48399,2.375709686279297,8.551716613769532,2.3435266113281252
48466,2.879861297607422,8.232879638671875,1.452279968261719
48538,0.9084608459472656,7.552843780517579,1.739981689453125
48599,1.5359559631347657,9.813293151855468,2.4405249023437503
48666,1.0388397216796876,10.370883636474609,2.7565177917480472
48738,4.98208969116211,8.039930877685547,-0.00718505859375
48801,-2.0670515441894532,14.494807891845705,0.4954696655273438
48866,6.437962188720704,13.155542907714844,-1.4750326538085938
48939,1.893262939453125,8.134534149169923,2.616259460449219
48999,1.1520043945312501,6.901099090576173,2.5009991455078127
49066,1.9461030578613283,4.820126495361328,4.165986785888672
49138,5.128335571289063,6.366560668945313,2.4397764587402344
49200,6.993157653808594,10.269244995117187,3.0759535217285157
49266,10.903625793457032,8.338709564208985,4.223167877197266
49337,0.3104544067382813,15.113770751953126,-0.3483256530761719
49399,-2.356549530029297,6.719077606201172,0.12020004272460938
49466,2.1514759826660157,12.781021728515626,2.45968505859375
49537,0.5749543762207031,8.464747467041017,1.0756631469726563
49599,1.5286212158203125,8.347391510009766,2.0422032165527346
49666,2.8756700134277344,8.54827377319336,1.8733543395996095
49737,2.895428924560547,8.027955780029297,1.9236497497558596
49800,0.79754150390625,7.632478179931641,1.3692027282714845
49866,0.355660400390625,10.66352508544922,2.7394532775878906
49937,4.4786865234375,8.560248870849609,2.9536578369140627
50000,2.4158262634277343,10.572364654541015,-0.28755203247070316
50066,0.2411485290527344,12.245285797119141,1.761387176513672
50140,2.840193786621094,12.024794311523438,-0.3686833190917969
50199,1.7570462036132812,8.20728286743164,1.417552185058594
50266,0.9380992126464844,6.3468017578125,2.325114898681641
50337,1.414109344482422,4.6201423645019535,3.0228140258789065
50399,5.1925520324707035,8.440797271728517,2.525548095703125
50466,5.787864074707032,9.974507904052734,7.709268493652345
50540,4.47434555053711,12.802127838134766,4.165537719726562
50599,1.5063175964355469,13.65685043334961,1.33402587890625
50666,-1.212778015136719,8.136031036376954,-0.7189549255371094
50737,1.3214520263671876,8.939859466552734,1.730401611328125
50799,0.4064048767089844,8.889863433837892,0.5471122741699219
50866,2.2302122497558594,8.475375366210939,2.114652557373047
50938,2.1585113525390627,8.382119293212892,2.086810455322266
51001,2.2950274658203127,7.8905415344238286,1.9571800231933594
51066,1.538800048828125,9.302255859375,1.8773959350585938
51137,0.8599617004394532,11.143726501464844,3.7739520263671875
51202,4.896916809082032,9.015901336669922,1.7982106018066406
51266,-1.7450711059570314,13.536949768066407,-0.14130615234375002
51339,4.786446533203125,13.23143508911133,0.23905288696289065
51399,3.2623159790039065,9.789342956542969,1.4060261535644532
51466,1.076561279296875,7.40824447631836,3.1620245361328125
51538,0.11990066528320313,5.240003356933594,2.2326072692871093
51600,3.6576438903808595,7.050937500000001,2.369273071289063
51666,4.274211730957031,8.898395690917969,4.405039672851562
51732,9.320368194580078,8.338110809326173,6.68973861694336
51800,0.6300398254394531,13.971795501708986,2.614912261962891
51866,-5.351072387695313,9.968819732666017,0.9063652038574219
51936,3.0135333251953127,8.867110748291015,2.7292744445800783
52000,0.6938072204589845,8.419691162109375,0.3050656127929688
52066,1.8532960510253906,8.413404235839844,1.4994319152832032
52137,1.6474740600585938,8.386460266113282,1.8684146118164064
52199,2.5209077453613284,8.308023376464844,1.6125965881347657
52266,1.115929412841797,7.924820251464844,2.382894744873047
52337,0.7791297912597657,12.826078033447267,4.5972399902343755
52399,2.870430908203125,9.117539978027343,1.8003062438964845
52466,0.918489990234375,10.885064392089845,-1.0698252868652345
52537,2.2326072692871093,15.075749816894533,0.4486170959472656
52600,2.6231451416015625,10.129136352539064,0.9696835327148438
52666,2.2050645446777346,8.384065246582031,1.7562977600097658
52736,0.29488677978515626,5.427862701416016,2.024989013671875
52799,1.20469482421875,3.815864868164063,2.9150381469726563
52866,6.718029785156251,11.709400177001953,4.824018402099609
52937,8.589288482666015,7.986342315673829,8.089627532958986
53001,0.7839198303222656,14.94058090209961,0.10313552856445313
53066,-1.7022601318359376,6.735842742919922,-0.5240602111816407
53137,1.8594332885742189,12.842693481445313,2.2568568420410156
53200,-0.11032058715820313,8.842561798095703,0.9627978515625001
53266,0.7792794799804688,8.520731048583984,2.4912693786621096
53337,2.614313507080078,8.400081939697266,2.0086729431152346
53399,2.4712110900878907,7.816595306396485,1.5995736694335938
53466,1.3394146728515626,7.580087127685547,1.8776953125
53537,0.5881269836425782,10.4566552734375,3.1153216552734375
53599,4.642895050048828,7.732470245361329,3.3030313110351566
53666,2.3474185180664064,11.897109832763672,-1.2855267333984375
53737,1.9832258605957032,14.628779296875,2.28245361328125
53800,3.3482373046875002,10.039772186279297,-0.5046006774902344
53866,0.37781433105468754,7.193590850830079,1.9389179992675782
53936,0.9928852844238282,4.971761169433594,2.2635928344726564
53999,1.5772700500488281,4.370611267089844,2.4478596496582035
54066,7.110064544677734,10.47386947631836,3.682043151855469
54137,8.745413818359376,8.700207824707032,7.4748559570312505
54199,1.683399353027344,15.683336334228516,1.8444644165039064
54266,-2.833158416748047,6.998097381591797,0.028590545654296876
54338,1.7116905212402345,12.323722686767578,2.0683987426757815
54399,0.5950126647949219,8.231831817626954,1.2528945922851562
54466,1.124611358642578,8.836873626708984,2.1523741149902347
54540,2.0604652404785155,8.021968231201173,1.7428257751464844
54602,2.341880035400391,7.92077865600586,2.1076171875000003
54666,1.4290782165527345,7.494614868164063,2.092199249267578
54737,1.2482542419433595,11.736194458007812,4.370461578369141
54800,4.321663055419922,7.333400115966797,3.42966796875
54866,0.4363426208496094,11.460467834472658,-1.324296112060547
54937,5.830974426269531,16.400644683837893,0.722098388671875
55000,1.7639318847656251,7.165149993896485,0.9662406921386719
55066,1.3010943603515626,7.626041564941406,3.300187225341797
55137,0.9491761779785157,4.854405212402344,2.053429870605469
55199,2.9318032836914063,4.215982818603516,3.405568084716797
55266,6.037544860839844,12.546908569335939,3.655697937011719
55338,11.831546173095704,7.66690658569336,6.665489044189454
55400,-1.8089881896972657,13.339061279296876,1.080004119873047
55466,-1.8914666748046876,6.529571685791016,-0.5216651916503906
55536,2.3610401916503907,11.709549865722657,2.532134399414063
55599,0.23605911254882814,8.47642318725586,1.2936099243164063
55666,0.9946815490722657,8.637937316894531,2.3008653259277345
55736,2.512525177001953,8.534801788330078,1.7741107177734377
55799,2.722837829589844,8.406219177246093,2.053280181884766
55866,1.12326416015625,7.786358184814453,2.3968157958984375
55937,1.0026150512695313,11.310330047607422,3.6323464965820316
56000,3.4274226379394532,7.930807800292969,4.229754180908204
56066,1.7536033630371095,10.841504974365234,-2.5677603149414066
56139,5.082381134033203,16.093633117675783,1.4052777099609375
56199,1.289718017578125,8.137976989746095,0.38934036254882814
56266,1.3226495361328126,7.002288665771485,2.9491671752929687
56338,0.8044271850585938,4.394711151123047,2.588567047119141
56400,3.8679565429687504,6.033054199218751,3.334615631103516
56466,6.6506698608398445,11.618539123535157,4.089046783447266
56537,10.650352478027344,7.349566497802734,6.008804626464844
56600,-1.308878173828125,12.061468048095703,-0.25387207031250003
56666,-0.9276210021972656,6.416856079101563,-0.31943572998046876
56746,2.0266355895996093,11.724967803955078,2.6491909790039063
56799,0.5728587341308594,8.708291015625,1.2385244750976563
56866,1.483714599609375,8.763675842285156,2.010618896484375
56938,2.222727813720703,8.441845092773438,1.6232244873046875
57000,2.5090823364257813,8.218210144042969,2.344873809814453
57066,1.6362474060058594,7.414381713867188,1.6455281066894532
57138,0.5090913391113282,10.547815704345703,4.415966949462891
57199,3.639232177734375,8.300688629150391,3.1296917724609377
57266,1.623523864746094,11.694730682373047,-1.4898518371582032
57339,2.788102111816406,15.459102630615234,1.415306854248047
57399,2.3558010864257812,9.13220947265625,0.446671142578125
57466,1.4861096191406251,7.731272735595703,2.4264541625976563
57537,0.24638763427734375,5.539979553222657,1.9636166381835938
57599,1.8064434814453125,4.6307702636718755,3.1222073364257814
57666,7.218439178466797,12.009825439453126,3.7116815185546876
57738,9.406738586425782,7.554939422607422,7.994275817871094
57800,-0.33769775390625,13.412109375,1.4108161926269531
57866,-0.26075775146484376,7.8411442565917975,-0.5740562438964844
57938,2.0519329833984377,13.870306549072266,0.7078779602050782
58000,0.365240478515625,8.191266174316407,0.9951306152343751
58066,1.3928535461425782,8.671467590332032,1.7922230529785157
58137,1.4679972839355468,8.697214050292969,1.4864089965820313
58199,2.1371058654785156,8.187823333740235,2.2303619384765625
58266,1.5390994262695312,7.155120849609375,1.560355224609375
58337,0.5541476440429688,10.743159484863282,4.998106384277344
58399,4.722080383300781,8.397537231445312,3.1690599060058595
58466,0.559237060546875,12.33958969116211,-1.4117143249511719
58538,3.781586151123047,14.86962844848633,0.4358935546875
58599,3.3757800292968754,8.502169647216798,0.7644602966308595
58666,1.7992584228515627,7.620802459716797,2.7759773254394533
58737,0.5933660888671876,5.071304168701172,1.906435546875
58800,2.2969734191894533,4.5918511962890625,3.0814920043945313
58866,6.523284759521485,11.353141021728517,2.889441375732422
58937,9.393565979003906,8.281079406738282,7.395520935058594
58999,-0.08382568359375,14.934293975830078,0.46193939208984375
59066,-2.128872985839844,8.225245513916017,0.04775070190429688
59137,1.7992584228515627,11.957135009765626,1.9040405273437502
59199,0.7520361328125,8.283923492431642,0.7186555480957032
59266,1.2246034240722656,8.249944152832033,1.481169891357422
59342,1.8826350402832033,8.563542022705079,1.573677520751953
59399,1.9139199829101563,8.104596405029298,1.7974621582031252
59466,1.1942166137695314,7.84174301147461,2.106569366455078
59537,1.7492623901367188,10.738818511962892,4.1094044494628905
59599,4.095333709716797,8.650660858154298,3.3666490173339847
59666,-0.7831713867187501,13.331427154541016,-2.2049148559570315
59737,4.231550445556641,14.954801330566408,1.0460247802734375
59800,2.1450393676757815,7.7865078735351565,0.24189697265625001
59866,0.7361691284179688,7.007976837158203,2.8098069763183595
59936,0.2716850280761719,4.750670928955079,2.4936643981933595
59999,3.673361206054688,5.4337005615234375,3.3787738037109376
60066,4.592749328613282,11.966415710449219,3.700155487060547
60137,8.766370239257814,10.46099624633789,4.111500091552735
60199,0.22543121337890626,11.011251983642579,0.9497749328613282
60266,-2.6005421447753907,8.981472930908204,0.017214202880859376
60337,0.17244140625,8.653804321289062,1.8949095153808595
60399,0.40505767822265626,9.136550445556642,1.1311976623535156
60466,2.7399023437500003,8.371940460205078,1.8077906799316408
60537,2.155816955566406,7.900271301269532,2.073039093017578
60602,2.089205474853516,7.787256317138672,1.0280621337890625
60666,0.7741900634765625,8.802894287109375,3.847149810791016
60737,2.5970993041992188,10.851085052490236,2.7485842895507813
60800,4.423002319335938,9.372010803222656,1.0617420959472657
60866,0.700393524169922,15.755186920166016,0.5399272155761718
60935,3.9342686462402345,11.990964660644531,-1.050216064453125
61000,0.5129832458496094,7.287745056152344,0.9921368408203125
61066,1.4115646362304688,6.239175567626954,2.8400440979003907
61137,1.0080038452148439,4.168082427978516,3.443888397216797
61199,6.434968414306641,7.833659820556641,2.178270263671875
61266,5.429060211181641,11.078312530517579,6.278244323730469
61337,3.955374755859375,13.175301818847657,3.86316650390625
61400,0.4093986511230469,10.97682357788086,0.5586383056640625
61466,-0.6679110717773438,11.267369384765626,-0.47151947021484375
61537,0.3195854187011719,8.889114990234376,1.0901829528808595
61599,-0.096998291015625,8.69631591796875,1.1990066528320313
61666,2.710862731933594,8.368796997070312,1.9139199829101563
61732,2.659220123291016,8.034093017578126,2.0838166809082033
61799,1.7763560485839844,7.917784881591797,1.3712983703613282
61866,0.9466314697265625,8.928183746337892,3.806584167480469
61938,3.0311965942382812,10.115963745117188,2.582878875732422
61999,3.2492930603027346,9.986632690429689,0.17333953857421877
62066,1.979333953857422,14.707216186523437,0.787811737060547
62139,2.9620404052734375,11.658056945800782,-0.1538800048828125
62199,1.8492544555664063,7.05617660522461,1.6094531250000002
62266,0.7120692443847657,5.780978393554688,2.2341041564941406
62336,1.182840270996094,3.909869384765625,2.552941131591797
62399,7.060816955566406,10.23047561645508,3.114573211669922
62466,7.1368588256835945,9.305698699951172,7.226821746826173
62537,1.7214202880859375,13.912219390869142,2.9726683044433595
62604,-0.45565246582031255,8.991951141357422,-0.39592666625976564
62666,0.4058061218261719,13.984818420410157,0.024099884033203126
62737,0.290994873046875,7.926915893554688,1.0961705017089844
62799,1.088386688232422,8.759185180664064,1.603465576171875
62866,2.5670118713378907,8.169561309814453,2.3105950927734376
62938,2.3173310852050784,7.869136047363281,1.8627264404296875
62999,0.6072871398925782,7.928113403320313,1.6892372131347657
63066,1.9690054321289063,9.274413757324218,3.814966735839844
63135,3.5919305419921876,10.821895751953125,2.451302490234375
63200,0.9216334533691407,12.186607818603516,-1.059796142578125
63266,2.544408874511719,13.717324676513673,1.2337344360351563
63336,2.162552947998047,8.579109649658204,1.4166540527343752
63399,1.5066169738769533,7.406897277832032,2.5536895751953126
63466,0.35102005004882814,4.74932373046875,2.3008653259277345
63537,3.0135333251953127,4.636608123779297,3.071612548828125
63599,6.595434722900391,11.048075408935548,4.283193054199219
63666,10.967542877197266,9.85266128540039,3.7833824157714844
63737,0.5542973327636719,14.946867828369141,0.11211685180664063
63800,-4.010460205078125,7.782316589355469,1.0659333801269533
63866,1.908680877685547,9.498348083496094,1.7561480712890627
63939,0.08517288208007813,9.183103637695313,0.9684860229492188
63999,1.8744021606445314,8.31356185913086,1.640438690185547
64066,1.9085311889648438,8.264463958740235,2.0207977294921875
64137,2.1871018981933594,7.731123046875,1.2097842407226562
64199,1.2421170043945313,8.359366607666017,2.625091094970703
64266,1.086291046142578,11.686348114013672,3.975433044433594
64335,5.785469055175781,10.730435943603517,1.798509979248047
64400,-0.28021728515625,13.518837432861329,0.8003855895996094
64466,3.9469921875000002,15.193704528808594,-0.11735595703125
64538,2.116897888183594,7.9221258544921875,0.640518035888672
64599,1.3000465393066407,6.362519073486329,2.6138644409179688
64666,0.4279600524902344,3.108286285400391,2.6625132751464844
64737,6.105802917480469,8.729397125244141,2.1405487060546875
64799,4.681365051269531,12.006232910156251,4.223317565917969
64866,5.27143798828125,14.717993774414063,4.049379272460937
64937,-0.9762698364257812,7.62379623413086,-0.4667294311523438
64999,1.0641371154785157,13.658347320556642,-0.223934326171875
65066,1.2783416748046876,7.707023162841797,0.7177574157714844
65137,1.1708651733398439,9.112001495361328,1.419049072265625
65199,1.584155731201172,8.127498779296875,1.3850697326660157
65265,2.0445982360839845,8.293054504394531,2.11480224609375
65337,2.0303778076171874,7.528294830322266,1.0066566467285156
65399,0.2567161560058594,9.000633087158203,3.8375697326660156
65466,3.184926910400391,11.92764633178711,4.198918304443359
65539,2.267933807373047,9.790390777587891,-0.014519805908203126
65599,1.5539186096191406,13.495935058593751,-0.3496728515625
65666,4.1517663574218755,15.204631805419922,-0.7548802185058594
65735,0.8095166015625,7.707023162841797,1.1392808532714844
65799,1.2374766540527344,6.807094573974609,1.9607725524902344
65866,0.4255650329589844,4.490062866210938,2.5430616760253906
65940,6.8250572204589846,7.351811828613282,2.485132141113281
66000,4.826862487792969,11.932136993408204,3.802991638183594
66066,9.905202026367188,9.96612533569336,4.127816162109375
66136,-0.3065625,15.834971008300782,-0.01676513671875
66201,-1.5875985717773438,7.3551049804687505,0.002245330810546875
66266,1.8161732482910158,10.428214416503907,2.2143452453613284
66337,0.209564208984375,8.497379608154297,0.8321195983886719
66399,1.8351837158203126,8.482859802246095,1.9770886230468752
66466,2.631976776123047,8.009544067382812,2.0291802978515627
66537,2.7963349914550784,8.013585662841797,1.7420773315429687
66599,1.374591522216797,7.622149658203125,2.3079006958007815
66666,0.1682501220703125,12.553045806884766,4.284540252685547
66732,4.714446258544922,7.987689514160157,2.4349864196777347
66799,0.5875282287597656,12.499457244873048,-0.5950126647949219
66866,3.7964053344726563,15.035633239746094,1.8145266723632814
66938,1.5149995422363283,7.7230398559570315,0.8930429077148438
66999,0.9246272277832032,7.048392791748047,3.0383816528320313
67066,0.7822732543945313,5.366190948486328,2.1775218200683595
67137,4.485572204589844,5.3844529724121095,3.561244354248047
67199,3.818858642578125,12.18675750732422,3.558849334716797
67266,9.510921936035157,13.667328643798829,3.106190643310547
67337,-0.04775070190429688,11.546538848876954,0.7475454711914062
67399,-2.1317170715332034,10.556347961425782,-0.30296997070312504
67466,1.30528564453125,8.029153289794923,1.809287567138672
67539,0.6887178039550782,9.191935272216798,1.1121871948242188
67599,2.2736219787597656,8.301287384033204,1.7513580322265625
67666,2.149380340576172,8.21626419067383,2.1145028686523437
67737,2.326312408447266,7.806715850830079,1.3934523010253907
67799,-0.027093658447265627,8.027357025146484,2.535128173828125
67866,0.3579057312011719,12.694950714111329,3.336860961914063
67938,5.258714447021485,9.157357177734376,0.8560697937011719
67999,-0.19639160156250002,14.65317855834961,-0.7391629028320312
68066,3.8237983703613283,14.280303955078125,0.544866943359375
68138,1.953138427734375,7.281757507324219,1.5060182189941407
68199,1.0121951293945313,6.447392578125,2.5830285644531252
68266,0.33021331787109376,4.835394744873047,2.670297088623047
68337,4.943020935058594,6.7350942993164065,2.8096572875976564
68401,4.651427307128906,11.587254180908204,5.3245774841308595
68466,9.183702392578125,10.807226257324219,3.314108276367188
68537,-1.1026071166992188,16.03360794067383,-0.40894958496093753
68600,-1.0844947814941406,7.692653045654297,-0.5733078002929688
68666,0.580642547607422,10.413694610595703,1.7992584228515627
68737,0.6153703308105469,7.387886810302735,0.5788462829589844
68800,2.3245161437988284,9.287436676025392,1.581760711669922
68866,2.6488916015625,8.31311279296875,2.226170654296875
68937,2.1550685119628907,8.172106018066406,1.6756155395507812
68999,0.7557783508300782,8.57940902709961,2.8035200500488284
69066,0.9529183959960938,10.614576873779297,2.252366180419922
69137,2.318678283691406,11.15645004272461,-1.2307406616210939
69200,1.787882080078125,13.621523895263673,2.16270263671875
69266,4.082011413574219,13.945300598144533,-2.005679168701172
69336,1.4181509399414063,7.406148834228516,1.6757652282714846
69399,0.75922119140625,5.897136840820313,2.545606384277344
69466,1.003213806152344,4.221670989990234,2.893033905029297
69539,9.387578430175783,10.562335510253908,1.2976515197753906
69600,7.303462371826172,8.735684051513672,6.983727264404298
69666,2.6396109008789064,15.578853607177734,2.2842498779296876
69737,-1.0615924072265626,9.363478546142579,0.03158432006835938
69799,1.7101936340332031,11.514954528808595,1.8028509521484375
69866,-0.24519012451171876,8.89465347290039,0.8619076538085938
69939,0.6873706054687501,7.778125305175782,1.3593232727050781
69999,2.598745880126953,8.48271011352539,1.9145187377929689
70066,2.5430616760253906,8.291856994628906,1.9526893615722658
70135,1.064436492919922,8.397836608886719,1.09931396484375
70199,0.9087602233886719,9.153165893554688,3.01532958984375
70266,2.8936326599121096,9.197473754882813,3.9833665466308594
70337,1.1729608154296876,13.006602630615236,-1.0698252868652345
70399,2.042652282714844,13.485456848144532,3.0097911071777346
70466,1.5564633178710938,9.055419158935548,0.4105961608886719
70539,0.7734416198730469,7.791746978759766,2.042801971435547
70600,1.0798544311523437,6.665638732910157,1.7582437133789064
70666,2.612666931152344,4.5884083557128905,3.745810546875
70737,6.314918060302735,10.257120208740234,2.283351745605469
70799,8.836274871826172,7.525001678466797,6.482120361328126
70866,2.7997778320312503,12.919334106445314,2.8539651489257816
70937,-1.68369873046875,8.42807373046875,0.5215155029296875
71000,1.0958711242675783,11.218870239257813,1.8268011474609376
71066,0.6126759338378907,9.375603332519532,1.0199789428710937
71137,1.0761122131347656,8.60051513671875,2.2219793701171877
71199,2.1917422485351565,8.34275115966797,1.217717742919922
71266,2.1411474609375003,8.184380493164063,2.1439915466308594
71337,1.6718733215332031,7.935597839355469,1.2403207397460938
71399,0.7809260559082032,8.804391174316407,2.731370086669922
71466,3.622167663574219,10.92652816772461,3.779041442871094
71538,2.8695327758789064,8.944350128173829,-0.3047662353515625
71600,-0.6580316162109375,14.20486083984375,1.292113037109375
71666,4.531227264404297,12.115805053710938,-0.10597961425781251
71734,2.3704705810546876,8.577762451171875,2.0588186645507816
71799,1.2582833862304688,6.122418365478516,2.092947692871094
71866,0.8878038024902344,4.04518798828125,2.3906785583496095
71940,5.218448181152344,8.947493591308595,3.173101501464844
72000,5.857619018554688,9.789043579101563,6.581663360595703
72066,5.990093536376953,13.860876159667969,3.835324401855469
72138,-1.646575927734375,8.009693756103516,-1.921703796386719
72199,1.404529266357422,12.1906494140625,0.31823822021484377
72266,1.7582437133789064,8.563841400146485,1.362466735839844
72335,1.024918670654297,8.539591827392579,1.1250604248046876
72402,1.8309924316406252,9.038504333496094,1.5778688049316407
72466,1.7212705993652344,8.736432495117189,2.087259521484375
72538,2.305355987548828,8.396788787841798,1.272653503417969
72600,0.6439608764648438,8.469537506103515,2.1296214294433593
72666,1.4096186828613282,10.415041809082032,3.185076599121094
72735,5.128634948730469,10.338999938964845,0.09789642333984376
72800,-2.451003112792969,13.918656005859376,-1.6269667053222656
72866,3.6143838500976564,12.329710235595703,-0.9839039611816407
72938,1.3680052185058595,7.541916503906251,0.8714877319335937
72999,2.0410057067871095,9.654174041748048,0.9880952453613282
73066,1.8468594360351565,8.91575958251953,1.5718812561035158
73137,2.42136474609375,9.157207489013672,1.4513818359375001
73199,2.0722906494140627,9.01440444946289,0.7009922790527344
73266,2.088307342529297,9.976753234863281,0.4700225830078125
73337,0.9677375793457031,10.46189437866211,0.08247848510742188
73399,1.907483367919922,8.36535415649414,0.7479945373535156
73466,1.5392491149902345,9.538314971923828,0.800984344482422
73537,1.522034912109375,9.896071014404297,0.6004014587402344
73599,1.0175839233398438,9.439969482421876,0.822689208984375
73666,1.6542100524902346,9.930499420166017,0.8520281982421876
73736,1.5831079101562502,9.636211395263672,0.8349636840820313
73801,1.2449610900878907,9.652228088378907,0.8258326721191407
73866,1.5359559631347657,9.647288360595704,0.7854167175292969
73938,1.3271401977539063,9.633816375732422,0.6945556640625
73999,1.4126124572753906,9.780511322021486,0.5864804077148438
74066,1.5864010620117188,9.57618621826172,0.5692662048339844
74139,1.7143849182128907,9.700427856445312,0.6038442993164063
74199,1.727856903076172,9.55223602294922,0.5583389282226563
74266,1.5913407897949219,9.65956283569336,0.5647755432128907
74337,1.5670912170410156,9.66435287475586,0.6153703308105469
74400,1.6242723083496096,9.645941162109375,0.5695655822753907
74466,1.6229251098632813,9.607770538330078,0.6511459350585938
74537,1.679956512451172,9.643995208740234,0.6849755859375001
74599,1.5055691528320314,9.716444549560547,0.6900650024414063
74666,1.7453704833984376,9.682914276123048,0.7469467163085938
74736,1.7307009887695313,9.63037353515625,0.7771838378906251
74799,1.5983761596679689,9.675729217529298,0.7149133300781251
74866,1.590143280029297,9.666298828125,0.6480024719238282
74937,1.5623011779785156,9.646839294433594,0.7467970275878907
74999,1.62861328125,9.63561264038086,0.7741900634765625
75066,1.6257691955566407,9.655820617675781,0.7372169494628906
75136,1.5786172485351564,9.703271942138672,0.7900570678710938
75199,1.627415771484375,9.645941162109375,0.7529342651367188
75265,1.5605049133300781,9.627978515625001,0.7626640319824219
75336,1.6067587280273439,9.632169799804688,0.8214916992187501
75400,1.5754737854003906,9.627230072021485,0.7804769897460938
75466,1.6043637084960938,9.666298828125,0.7206015014648438
75537,1.5643968200683596,9.629026336669922,0.7551795959472657
75599,1.7528549194335938,9.666149139404297,0.6997947692871094
75666,1.623673553466797,9.6327685546875,0.7002438354492188
75739,1.651365966796875,9.60597427368164,0.7159611511230469
75800,1.6735198974609375,9.658065948486328,0.7737409973144531
75866,1.6314573669433594,9.638307037353517,0.7728428649902345
75937,1.6423846435546876,9.639654235839844,0.7367678833007812
76000,1.603465576171875,9.639504547119142,0.7728428649902345
76066,1.6639398193359376,9.628128204345703,0.7999365234375
76140,1.7022601318359376,9.62034439086914,0.7806266784667969
76199,1.6512162780761719,9.682016143798828,0.828527069091797
76266,1.6459771728515626,9.64324676513672,0.8140072631835938
76337,1.691781921386719,9.660760345458986,0.8123606872558594
76399,1.6533119201660158,9.653874664306642,0.8074209594726562
76466,1.6350498962402344,9.634714508056641,0.8246351623535156
76540,1.691781921386719,9.626631317138672,0.8277786254882813
76599,1.691781921386719,9.617051239013673,0.8518785095214845
76666,1.7069004821777345,9.645492095947267,0.8684939575195313
76733,1.6290623474121095,9.656868438720704,0.8752299499511719
76799,1.6784596252441406,9.605674896240235,0.8548722839355469
76866,1.6378939819335938,9.646839294433594,0.8650511169433595
76937,1.6772621154785157,9.647737426757812,0.8711883544921876
77001,1.6543597412109377,9.602681121826173,0.8665480041503907
77066,1.6913328552246094,9.616302795410157,0.9135502624511719
77137,1.701661376953125,9.620494079589845,0.8744815063476563
77202,1.72680908203125,9.61884750366211,0.8990304565429688
77266,1.7054035949707032,9.632020111083985,0.8906478881835938
77337,1.7224681091308596,9.615853729248048,0.8643026733398438
77399,1.7344432067871094,9.589807891845703,0.8440946960449219
77466,1.7277072143554688,9.620793457031251,0.8674461364746094
77539,1.6810043334960938,9.604776763916016,0.8875044250488282
77599,1.6830999755859375,9.642348632812501,0.8581654357910157
77666,1.6832496643066408,9.639654235839844,0.8560697937011719
77738,1.7155824279785157,9.63755859375,0.8214916992187501
77799,1.7196240234375,9.619745635986328,0.8481362915039063
77866,1.7417779541015626,9.614656219482422,0.8601113891601563
77937,1.729054412841797,9.608668670654298,0.8631051635742188
78001,1.7101936340332031,9.63800765991211,0.8659492492675782
78066,1.7308506774902344,9.621990966796876,0.8740324401855469
78138,1.6977694702148438,9.631121978759767,0.8381071472167969
78199,1.7498611450195314,9.636211395263672,0.8949888610839845
78266,1.744771728515625,9.5944482421875,0.8720864868164063
78337,1.7100439453125,9.638756103515625,0.83586181640625
78400,1.730251922607422,9.602980499267579,0.8065228271484376
78466,1.730102233886719,9.625882873535156,0.8521778869628907
78539,1.7286053466796876,9.605225830078126,0.8559201049804688
78600,1.7456698608398438,9.622440032958984,0.8273295593261719
78666,1.7497114562988283,9.621541900634766,0.8446934509277344
78738,1.7040563964843751,9.626481628417968,0.8337661743164063
78800,1.7274078369140626,9.600884857177736,0.8464897155761719
78866,1.8037490844726562,9.625882873535156,0.8165519714355469
78937,1.7856367492675782,9.686506805419922,0.8044271850585938
78999,1.7609381103515627,9.591155090332032,0.7849676513671875
79066,1.766177215576172,9.632918243408204,0.7911048889160157
79139,1.776805114746094,9.56900115966797,0.839304656982422
79199,1.7579443359375,9.63172073364258,0.8259823608398438
79266,1.7778529357910158,9.603279876708985,0.8147557067871094
79337,1.7473164367675782,9.611812133789064,0.8262817382812501
79399,1.739981689453125,9.610015869140625,0.8583151245117188
79466,1.7675244140625002,9.569749603271484,0.8580157470703126
79537,1.7413288879394533,9.624385986328125,0.8563691711425782
79599,1.7694703674316408,9.570498046875,0.7692503356933594
79666,1.675166473388672,9.670490112304687,0.7803273010253907
79740,1.6811540222167969,9.624984741210938,0.8815168762207032
79801,1.8878741455078125,9.572743377685548,0.93645263671875
79866,1.907483367919922,9.575886840820313,0.8376580810546875
79937,1.7239649963378907,9.624236297607423,0.7786807250976563
79999,1.6196319580078127,9.606722717285157,0.8156538391113282
80066,1.701661376953125,9.667346649169922,0.810714111328125
80137,1.7658778381347657,9.561067657470703,0.9903405761718751
80200,1.6997154235839844,9.628128204345703,1.0204280090332032
80266,1.6736695861816406,9.566007385253906,1.9131715393066406
80335,2.005978546142578,9.397757263183594,1.623523864746094
80399,2.3474185180664064,9.647438049316406,0.975820770263672
80466,1.8245558166503908,9.467661895751954,1.4431489562988282
80537,1.7371376037597657,9.54939193725586,0.8675958251953125
80599,1.6064593505859375,10.394384765625,0.6427633666992187
80666,1.8097366333007814,9.674531707763672,0.9837542724609375
80737,1.7558486938476563,9.536668395996093,1.0072554016113282
80799,1.8315911865234376,9.75686050415039,1.0008187866210938
80866,1.9291882324218752,9.485325164794922,1.4217434692382813
80937,2.604883117675781,9.67303482055664,1.3010943603515626
81001,2.2207818603515626,9.380543060302735,1.3081297302246095
81066,1.6211288452148438,9.695637817382813,2.2637425231933594
81140,1.8806890869140627,9.564959564208985,0.9621990966796875
81200,1.9118243408203126,9.416019287109375,0.47481262207031255
81265,1.981579284667969,9.611363067626954,0.8396040344238281
81340,1.9630178833007814,9.449100494384766,0.7696994018554688
81399,2.2040167236328125,9.502090301513672,-1.879790954589844
81466,1.7071998596191407,9.642648010253907,1.1271560668945313
81535,2.0610639953613283,9.891580352783203,1.3236973571777344
81601,2.0709434509277345,9.532028045654297,0.833466796875
81666,1.9080821228027345,9.411678314208984,0.9984237670898438
81732,1.9570303344726563,9.513167266845704,1.0648855590820312
81799,1.943258972167969,9.292376403808595,1.0565029907226564
81866,1.8935623168945312,9.444310455322267,1.259480895996094
81937,2.152673492431641,9.65866470336914,1.12805419921875
81999,2.0076251220703125,9.575886840820313,1.4292279052734376
82066,1.896556091308594,9.516161041259766,1.143472137451172
82137,1.8992504882812502,9.572144622802735,1.2217593383789063
82199,1.9950512695312501,9.554481353759765,1.0937754821777343
82266,2.0179536437988284,9.557026062011719,0.9604028320312501
82337,1.9464024353027345,9.624385986328125,1.1603869628906252
82399,1.889520721435547,9.621990966796876,1.075214080810547
82466,2.149080963134766,9.88229965209961,1.2162208557128906
82537,1.8050962829589845,9.568252716064453,1.440604248046875
82600,1.8018031311035156,9.589807891845703,1.841620330810547
82665,1.7057029724121096,9.702972564697266,2.0278330993652345
82737,2.702330474853516,11.216026153564453,1.6349002075195314
82800,2.5415647888183597,10.48150360107422,1.7573455810546876
82866,3.3088691711425784,12.821287994384766,3.4262251281738285
82936,2.8003765869140627,9.5034375,1.8359321594238283
82999,3.536246337890625,8.940757598876953,4.496200103759766
83066,4.468208312988281,6.653963012695312,3.2482452392578125
83136,2.5309368896484377,6.825955352783203,2.807861022949219
83199,3.0428723144531253,8.11043426513672,3.523971862792969
83266,4.7258226013183595,10.475066986083984,3.067421264648438
83336,2.880909118652344,11.22979751586914,4.168681182861328
83399,2.964435424804688,11.254047088623047,3.280727691650391
83466,2.3514601135253907,9.951006774902345,2.5131239318847656
83539,2.136058044433594,9.26917465209961,1.1359877014160156
83600,-4.136198730468751,9.333989868164062,1.3274395751953125
83666,3.437002716064453,7.661218414306641,4.5461961364746095
83736,2.5167164611816406,8.004155273437501,5.3016751098632815
83800,0.4358935546875,6.362219696044922,6.010600891113282
83866,0.7908055114746094,6.146817626953125,7.789202270507813
83937,-0.15358062744140627,6.113137664794922,7.250023498535157
83999,0.7743397521972657,5.149591369628906,7.796836395263672
84066,0.06032455444335938,4.764591979980469,7.909102935791016
84136,-0.09175918579101563,4.5039839172363285,9.023685150146484
84199,-0.6089337158203125,3.8441560363769534,8.879684600830078
84266,-0.7649093627929688,3.5738182067871094,8.914562072753906
84333,-1.4373110961914064,3.1281948852539063,9.27785659790039
84399,-0.49651748657226563,2.2540127563476564,8.717122650146484
84466,-0.5050497436523438,2.2836511230468752,9.102421417236329
84540,-0.20986358642578126,3.035387878417969,9.585167541503907
84599,0.06631210327148437,2.471360778808594,9.043893127441407
84666,-0.13965957641601562,3.550167388916016,8.970845031738282
84737,-0.4291575622558594,3.1879206848144532,9.054221649169921
84799,-0.38155654907226566,3.4447865295410156,9.031918029785157
84866,-0.4623884582519531,3.3329690551757816,9.123228149414063
84939,-0.4183799743652344,3.6838394165039063,9.127718811035157
85001,-0.29533584594726564,3.4447865295410156,9.257648620605469
85066,-0.3465293884277344,3.5645375061035156,8.894503784179689
85139,-0.5122348022460937,3.88232666015625,8.847950592041016
85200,-0.24638763427734375,3.255879364013672,9.07562713623047
85265,-0.17184265136718752,3.184328155517578,9.037157135009766
85336,-0.3183879089355469,3.696263580322266,9.15900375366211
85400,-0.8243357849121095,3.7389248657226566,9.473799133300782
85469,-0.5656736755371095,3.8046382141113284,8.876990203857423
85536,-0.3776646423339844,3.7628750610351562,9.081614685058595
85600,-0.22273681640625,3.8672080993652345,9.035809936523439
85666,-0.31748977661132816,3.895648956298828,8.956774291992188
85736,-0.24863296508789065,3.753145294189453,8.915609893798829
85799,-0.38350250244140627,3.8203555297851564,9.026080169677735
85866,-0.3565585327148438,3.89954086303711,8.94869110107422
85936,-0.21585113525390626,3.969595184326172,8.884474639892579
86000,-0.20133132934570314,3.8826260375976562,9.003926239013673
86066,-0.5764512634277345,3.9245388793945315,8.891510009765625
86135,-0.44068359375000005,3.8576280212402345,8.822503509521486
86200,-0.17663269042968752,3.922892303466797,8.837322692871094
86266,-0.4147874450683594,3.95896728515625,9.062155151367188
86340,-0.26345214843750003,4.005071411132812,8.774453430175782
86399,-0.21480331420898438,3.939657440185547,8.88312744140625
86466,-0.3447331237792969,4.004772033691406,8.921597442626954
86535,-0.33290771484375004,4.189188537597657,8.785979461669923
86600,-0.5114863586425782,3.94938720703125,9.116342468261719
86666,-0.19669097900390625,3.8610708618164065,8.91860366821289
86736,-0.2896476745605469,4.008963317871094,9.032666473388673
86800,-0.3423381042480469,3.971990203857422,8.890162811279298
86866,-0.25731491088867187,4.057911529541016,8.875193939208986
86938,-0.207169189453125,3.9977366638183596,9.075477447509765
86999,-0.028141479492187503,4.136797485351563,8.688981170654298
87066,-0.5631289672851563,3.8914576721191407,8.932075653076172
87137,-0.22528152465820314,3.6384837341308596,9.017098846435548
87200,-0.25806335449218754,4.02123779296875,8.827293548583985
87266,-0.20836669921875,3.8740937805175784,8.942553863525392
87336,-0.16974700927734376,3.9963894653320313,8.909622344970703
87399,-0.15941848754882812,3.8685552978515627,8.917406158447266
87466,-0.24489074707031253,3.9444474792480473,9.050030364990235
87536,-0.18172210693359375,3.9414537048339846,8.865314483642578
87600,-0.18082397460937502,3.8841229248046876,8.959468688964844
87666,-0.14953903198242188,3.9799237060546875,9.02578079223633
87736,-0.05882766723632813,3.967200164794922,8.89600067138672
87800,0.13067825317382814,3.9311251831054688,8.736432495117189
87866,-0.20133132934570314,3.7812867736816407,8.884774017333985
87936,-0.4098477172851563,3.7844302368164064,9.007967834472657
87999,-0.37092864990234375,3.7118312072753907,8.920549621582031
88066,-0.23590942382812502,3.8585261535644535,8.936117248535156
88138,-0.2507286071777344,3.8957986450195317,9.021739196777345
88200,-0.2436932373046875,3.9511834716796876,9.07517807006836
88266,-0.12948074340820312,3.6670742797851563,9.185648345947266
88332,-0.1722917175292969,3.8633161926269532,8.790769500732422
88400,-0.23426284790039065,3.9438487243652345,8.877888336181641
88466,-0.22123992919921875,3.8237983703613283,8.93626693725586
88535,-0.37511993408203126,3.843557281494141,9.319769439697266
88599,-0.26300308227539065,4.1721240234375,8.825347595214843
88666,-0.39428009033203126,4.071383514404297,8.949738922119142
88735,-0.34143997192382813,4.083208923339844,8.806636505126953
88800,-0.3794609069824219,3.9065762329101563,8.507109375
88866,-0.4183799743652344,4.110901336669922,8.966653747558594
